PART_ID,Trial_no,Trial_type,CSI,Stim_letter,Key_pressed,letter_choose,Rt,Corr,Stimulus Time
2A-AS0403K22,1,training,12,n,n,n,1.8880078000074718,True,30
2A-AS0403K22,2,training,12,n,n,n,0.7900659000151791,True,30
2A-AS0403K22,3,training,12,m,m,m,0.567079600004945,True,30
2A-AS0403K22,4,training,12,z,z,z,0.5838667000061832,True,30
2A-AS0403K22,5,training,12,z,z,z,0.38436530000763014,True,30
2A-AS0403K22,6,training,12,n,n,n,0.6004915999947116,True,30
2A-AS0403K22,7,training,12,z,z,z,1.7492176000087056,True,30
2A-AS0403K22,8,training,12,x,n,n,0.6337571000040043,False,30
2A-AS0403K22,9,training,12,m,m,m,0.9380013000045437,True,30
2A-AS0403K22,10,training,12,n,no_key,no_letter,-1.0,False,30
2A-AS0403K22,11,training,12,x,x,x,0.7478986000060104,True,30
2A-AS0403K22,12,training,12,n,n,n,0.8818447999947239,True,30
2A-AS0403K22,13,training,12,m,m,m,0.8980028000078164,True,30
2A-AS0403K22,14,training,12,z,z,z,0.8192591999832075,True,30
2A-AS0403K22,15,training,12,m,m,m,0.6010303999937605,True,30
2A-AS0403K22,16,training,12,m,m,m,0.8466803000192158,True,18
2A-AS0403K22,17,training,12,z,z,z,1.102354699978605,True,18
2A-AS0403K22,18,training,12,m,m,m,0.6407415000139736,True,18
2A-AS0403K22,19,training,12,z,z,z,1.0020517999946605,True,18
2A-AS0403K22,20,training,12,m,n,n,1.5121416000183672,False,18
2A-AS0403K22,21,training,12,x,z,z,1.324134700000286,False,18
2A-AS0403K22,22,training,12,m,m,m,0.7919096999976318,True,18
2A-AS0403K22,23,training,12,z,z,z,0.7322877999977209,True,18
2A-AS0403K22,24,training,12,n,n,n,0.8108911000017542,True,18
2A-AS0403K22,25,training,12,x,x,x,0.7578334999852814,True,18
2A-AS0403K22,26,training,12,x,x,x,1.1457092000055127,True,15
2A-AS0403K22,27,training,13,x,x,x,0.943415100016864,True,15
2A-AS0403K22,28,experiment,14,m,m,m,0.6953794000146445,True,15
2A-AS0403K22,29,experiment,13,x,x,x,1.0287869999883696,True,15
2A-AS0403K22,30,experiment,15,z,z,z,0.9469227000081446,True,15
2A-AS0403K22,31,experiment,12,x,x,x,0.8207155999843962,True,15
2A-AS0403K22,32,training,12,z,z,z,1.3590210999827832,True,14
2A-AS0403K22,33,training,13,z,z,z,0.9039667999895755,True,14
2A-AS0403K22,34,experiment,15,z,z,z,0.853539700008696,True,14
2A-AS0403K22,35,experiment,12,m,m,m,1.2893970000150148,True,14
2A-AS0403K22,36,experiment,14,m,m,m,0.7219785999914166,True,14
2A-AS0403K22,37,experiment,13,z,m,m,1.4017432000255212,False,14
2A-AS0403K22,38,training,12,n,n,n,0.9159464999975171,True,14
2A-AS0403K22,39,training,13,m,m,m,0.9221372999891173,True,14
2A-AS0403K22,40,experiment,14,x,z,z,1.0109960999980103,False,14
2A-AS0403K22,41,experiment,12,m,x,x,1.2703391999821179,False,14
2A-AS0403K22,42,experiment,15,n,n,n,0.7477552999916952,True,14
2A-AS0403K22,43,experiment,13,x,z,z,0.9058423999813385,False,14
2A-AS0403K22,44,training,12,m,m,m,0.7299980999960098,True,15
2A-AS0403K22,45,training,15,n,m,m,1.1818268000206444,False,15
2A-AS0403K22,46,experiment,14,n,n,n,1.2219067999976687,True,15
2A-AS0403K22,47,experiment,15,x,x,x,1.0129160000069533,True,15
2A-AS0403K22,48,experiment,12,x,x,x,0.7184154000133276,True,15
2A-AS0403K22,49,experiment,13,m,n,n,1.3993435000011232,False,15
2A-AS0403K22,50,training,15,x,n,n,1.137396100006299,False,15
2A-AS0403K22,51,training,12,n,m,m,0.9457112000091001,False,15
2A-AS0403K22,52,experiment,14,m,m,m,0.6901970999897458,True,15
2A-AS0403K22,53,experiment,12,x,x,x,0.839642000006279,True,15
2A-AS0403K22,54,experiment,13,n,x,x,0.9366877999855205,False,15
2A-AS0403K22,55,experiment,15,x,x,x,0.6120059000095353,True,15
2A-AS0403K22,56,training,14,z,z,z,0.6791417000058573,True,15
2A-AS0403K22,57,training,12,n,n,n,0.8349112999858335,True,15
2A-AS0403K22,58,experiment,13,m,m,m,0.7105857999995351,True,15
2A-AS0403K22,59,experiment,14,m,n,n,1.1344883999845479,False,15
2A-AS0403K22,60,experiment,12,m,m,m,0.6498010000213981,True,15
2A-AS0403K22,61,experiment,15,n,n,n,0.7261345000006258,True,15
2A-AS0403K22,62,training,14,n,n,n,0.8614484000136144,True,15
2A-AS0403K22,63,training,14,z,m,m,1.0216388999833725,False,15
2A-AS0403K22,64,experiment,13,n,n,n,0.8915922000014689,True,15
2A-AS0403K22,65,experiment,14,x,x,x,0.8621750999882352,True,15
2A-AS0403K22,66,experiment,15,m,m,m,0.8043700999987777,True,15
2A-AS0403K22,67,experiment,12,n,n,n,0.9114931999938563,True,15
2A-AS0403K22,68,training,14,x,x,x,0.7050833999819588,True,14
2A-AS0403K22,69,training,15,z,n,n,0.9185541000042576,False,14
2A-AS0403K22,70,experiment,13,z,n,n,1.4892824000271503,False,14
2A-AS0403K22,71,experiment,15,x,x,x,0.6388889999943785,True,14
2A-AS0403K22,72,experiment,12,z,z,z,1.545090200001141,True,14
2A-AS0403K22,73,experiment,14,z,z,z,0.7085576000099536,True,14
2A-AS0403K22,74,training,13,z,z,z,0.7482284999859985,True,14
2A-AS0403K22,75,training,13,n,n,n,0.854677499999525,True,14
2A-AS0403K22,76,experiment,12,x,x,x,0.712595599994529,True,14
2A-AS0403K22,77,experiment,15,x,x,x,1.169211800006451,True,14
2A-AS0403K22,78,experiment,14,z,z,z,0.8199699999822769,True,14
2A-AS0403K22,79,experiment,13,z,z,z,1.1305563999922015,True,14
2A-AS0403K22,80,training,13,z,z,z,1.0040178000053857,True,13
2A-AS0403K22,81,training,12,m,n,n,0.8503119999950286,False,13
2A-AS0403K22,82,experiment,13,n,n,n,0.6437847000197507,True,13
2A-AS0403K22,83,experiment,12,m,x,x,1.4536351999850012,False,13
2A-AS0403K22,84,experiment,15,n,n,n,0.7742526000074577,True,13
2A-AS0403K22,85,experiment,14,n,n,n,1.1716019000159577,True,13
2A-AS0403K22,86,training,12,m,n,n,1.2171489000029396,False,13
2A-AS0403K22,87,training,12,n,x,x,1.0153174999868497,False,13
2A-AS0403K22,88,experiment,12,z,z,z,1.1832547999802046,True,13
2A-AS0403K22,89,experiment,15,m,n,n,1.0219835999887437,False,13
2A-AS0403K22,90,experiment,13,m,m,m,0.738636599999154,True,13
2A-AS0403K22,91,experiment,14,m,m,m,0.8494878000055905,True,13
