PART_ID,Trial_no,Trial_type,CSI,Stim_letter,Key_pressed,letter_choose,Rt,Corr,Stimulus Time
2A-AS1309K21,1,training,12,n,n,n,1.3298547000158578,True,30
2A-AS1309K21,2,training,12,m,m,m,0.8687295999843627,True,30
2A-AS1309K21,3,training,12,m,m,m,0.7121464998926967,True,30
2A-AS1309K21,4,training,12,m,m,m,0.6173816998489201,True,30
2A-AS1309K21,5,training,12,x,z,z,1.1517457999289036,False,30
2A-AS1309K21,6,training,12,x,x,x,0.9679289001505822,True,30
2A-AS1309K21,7,training,12,z,z,z,0.6006261999718845,True,30
2A-AS1309K21,8,training,12,z,z,z,0.5836147000081837,True,30
2A-AS1309K21,9,training,12,n,n,n,0.7903814997989684,True,30
2A-AS1309K21,10,training,12,x,z,z,0.6345146000385284,False,30
2A-AS1309K21,11,training,12,z,z,z,1.3555951998569071,True,30
2A-AS1309K21,12,training,12,z,z,z,0.9347759999800473,True,30
2A-AS1309K21,13,training,12,m,m,m,0.6007097999099642,True,30
2A-AS1309K21,14,training,12,z,z,z,1.1741450000554323,True,30
2A-AS1309K21,15,training,12,z,z,z,1.0485159999225289,True,30
2A-AS1309K21,16,training,12,x,n,n,1.2653403000440449,False,18
2A-AS1309K21,17,training,12,z,n,n,1.3912835998926312,False,18
2A-AS1309K21,18,training,12,m,m,m,0.8468288998119533,True,18
2A-AS1309K21,19,training,12,n,n,n,0.6725703999400139,True,18
2A-AS1309K21,20,training,12,m,z,z,1.1053392998874187,False,18
2A-AS1309K21,21,training,12,m,n,n,0.9354138998314738,False,18
2A-AS1309K21,22,training,12,m,m,m,0.7415579999797046,True,18
2A-AS1309K21,23,training,12,m,m,m,0.7558105001226068,True,18
2A-AS1309K21,24,training,12,n,n,n,0.8411282999441028,True,18
2A-AS1309K21,25,training,12,x,x,x,1.375921699916944,True,18
2A-AS1309K21,26,training,12,m,m,m,1.217578300042078,True,15
2A-AS1309K21,27,training,14,m,m,m,0.6898912000469863,True,15
2A-AS1309K21,28,experiment,14,x,n,n,1.1601279999595135,False,15
2A-AS1309K21,29,experiment,13,n,x,x,1.1244701000396162,False,15
2A-AS1309K21,30,experiment,15,z,x,x,1.1542829999234527,False,15
2A-AS1309K21,31,experiment,12,x,x,x,0.7229425997938961,True,15
2A-AS1309K21,32,training,15,n,n,n,0.7399649999570101,True,16
2A-AS1309K21,33,training,13,x,x,x,1.2249404999893159,True,16
2A-AS1309K21,34,experiment,12,n,n,n,0.7717550999950618,True,16
2A-AS1309K21,35,experiment,15,n,n,n,0.9128231001086533,True,16
2A-AS1309K21,36,experiment,14,n,m,m,1.1152053999248892,False,16
2A-AS1309K21,37,experiment,13,n,n,n,0.8257605999242514,True,16
2A-AS1309K21,38,training,15,m,n,n,0.8844401000533253,False,16
2A-AS1309K21,39,training,12,x,x,x,1.0527421000879258,True,16
2A-AS1309K21,40,experiment,13,z,z,z,0.8918369999155402,True,16
2A-AS1309K21,41,experiment,15,m,n,n,0.8442401001229882,False,16
2A-AS1309K21,42,experiment,14,x,n,n,0.8150434999261051,False,16
2A-AS1309K21,43,experiment,12,x,x,x,1.6181805999949574,True,16
2A-AS1309K21,44,training,15,n,n,n,0.6832108001690358,True,17
2A-AS1309K21,45,training,14,m,m,m,0.979974800022319,True,17
2A-AS1309K21,46,experiment,15,n,m,m,0.7348162999842316,False,17
2A-AS1309K21,47,experiment,14,n,m,m,0.777294599916786,False,17
2A-AS1309K21,48,experiment,13,n,m,m,0.7423165000509471,False,17
2A-AS1309K21,49,experiment,12,x,x,x,1.0880374000407755,True,17
2A-AS1309K21,50,training,14,n,m,m,0.7789686000905931,False,18
2A-AS1309K21,51,training,14,m,n,n,0.834802099969238,False,18
2A-AS1309K21,52,experiment,15,x,n,n,0.7882822998799384,False,18
2A-AS1309K21,53,experiment,13,n,n,n,0.7106894999742508,True,18
2A-AS1309K21,54,experiment,12,m,m,m,0.8510341001674533,True,18
2A-AS1309K21,55,experiment,14,m,m,m,0.8858986999839544,True,18
2A-AS1309K21,56,training,13,m,m,m,0.682766200043261,True,18
2A-AS1309K21,57,training,15,x,m,m,0.6921701000537723,False,18
2A-AS1309K21,58,experiment,14,x,z,z,0.6902848000172526,False,18
2A-AS1309K21,59,experiment,13,n,n,n,0.9029388001654297,True,18
2A-AS1309K21,60,experiment,15,m,m,m,0.6526909999083728,True,18
2A-AS1309K21,61,experiment,12,x,x,x,1.1033813999965787,True,18
2A-AS1309K21,62,training,15,n,n,n,0.7468767000827938,True,18
2A-AS1309K21,63,training,15,x,x,x,0.8952952998224646,True,18
2A-AS1309K21,64,experiment,13,m,z,z,1.107768899993971,False,18
2A-AS1309K21,65,experiment,12,z,z,z,0.8536412001121789,True,18
2A-AS1309K21,66,experiment,14,z,z,z,0.6854105000384152,True,18
2A-AS1309K21,67,experiment,15,m,m,m,0.6195833999663591,True,18
2A-AS1309K21,68,training,12,m,m,m,0.8657706000376493,True,18
2A-AS1309K21,69,training,14,m,m,m,0.8579351000953466,True,18
2A-AS1309K21,70,experiment,12,n,m,m,1.836765700019896,False,18
2A-AS1309K21,71,experiment,13,n,m,m,1.0695915999822319,False,18
2A-AS1309K21,72,experiment,15,z,z,z,0.8028160000685602,True,18
2A-AS1309K21,73,experiment,14,x,n,n,0.9904736001044512,False,18
2A-AS1309K21,74,training,14,x,x,x,1.0634804000146687,True,18
2A-AS1309K21,75,training,15,n,n,n,1.7169453999958932,True,18
2A-AS1309K21,76,experiment,13,n,x,x,1.3530003998894244,False,18
2A-AS1309K21,77,experiment,14,m,m,m,0.848447399912402,True,18
2A-AS1309K21,78,experiment,12,m,m,m,0.666648400016129,True,18
2A-AS1309K21,79,experiment,15,z,n,n,1.1001828000880778,False,18
2A-AS1309K21,80,training,15,z,z,z,1.3309441998135298,True,18
2A-AS1309K21,81,training,14,m,m,m,0.9026526999659836,True,18
2A-AS1309K21,82,experiment,14,x,x,x,0.6646855000872165,True,18
2A-AS1309K21,83,experiment,12,n,m,m,0.8802158001344651,False,18
2A-AS1309K21,84,experiment,15,m,n,n,1.0632084999233484,False,18
2A-AS1309K21,85,experiment,13,m,z,z,1.0003945000935346,False,18
2A-AS1309K21,86,training,12,m,n,n,0.7252152999863029,False,18
2A-AS1309K21,87,training,13,x,m,m,0.6766329000238329,False,18
2A-AS1309K21,88,experiment,13,x,x,x,1.2837691002059728,True,18
2A-AS1309K21,89,experiment,12,m,m,m,0.8059037998318672,True,18
2A-AS1309K21,90,experiment,14,x,x,x,0.765646800165996,True,18
2A-AS1309K21,91,experiment,15,x,x,x,0.9158489000983536,True,18
