PART_ID,Trial_no,Trial_type,CSI,Stim_letter,Key_pressed,letter_choose,Rt,Corr,Stimulus Time
2A-DK2706K35,1,training,12,n,no_key,no_letter,-1.0,False,30
2A-DK2706K35,2,training,12,m,m,m,1.523667600005865,True,30
2A-DK2706K35,3,training,12,z,z,z,1.9481623000465333,True,30
2A-DK2706K35,4,training,12,z,z,z,0.6004548999480903,True,30
2A-DK2706K35,5,training,12,x,x,x,1.7432933999225497,True,30
2A-DK2706K35,6,training,12,m,m,m,0.9848512001335621,True,30
2A-DK2706K35,7,training,12,x,x,x,1.8371678004041314,True,30
2A-DK2706K35,8,training,12,n,n,n,1.3035913002677262,True,30
2A-DK2706K35,9,training,12,x,n,n,1.4379861000925303,False,30
2A-DK2706K35,10,training,12,m,no_key,no_letter,-1.0,False,30
2A-DK2706K35,11,training,12,x,x,x,1.10018810024485,True,30
2A-DK2706K35,12,training,12,x,m,m,1.2686005998402834,False,30
2A-DK2706K35,13,training,12,z,x,x,1.1592792998999357,False,30
2A-DK2706K35,14,training,12,x,z,z,0.050784300081431866,False,30
2A-DK2706K35,15,training,12,n,m,m,1.0738206002861261,False,30
2A-DK2706K35,16,training,12,m,m,m,0.5706989001482725,True,18
2A-DK2706K35,17,training,12,m,n,n,0.744151399936527,False,18
2A-DK2706K35,18,training,12,z,z,z,0.805810000281781,True,18
2A-DK2706K35,19,training,12,m,n,n,0.6529621002264321,False,18
2A-DK2706K35,20,training,12,m,n,n,0.5282510998658836,False,18
2A-DK2706K35,21,training,12,z,z,z,0.6839796998538077,True,18
2A-DK2706K35,22,training,12,n,x,x,0.3167273001745343,False,18
2A-DK2706K35,23,training,12,z,n,n,0.7492339997552335,False,18
2A-DK2706K35,24,training,12,z,z,z,0.9657015004195273,True,18
2A-DK2706K35,25,training,12,m,m,m,0.8022716999985278,True,18
2A-DK2706K35,26,training,12,m,m,m,0.6589081999845803,True,15
2A-DK2706K35,27,training,12,z,x,x,0.9153256001882255,False,15
2A-DK2706K35,28,experiment,15,m,z,z,0.7778677996248007,False,15
2A-DK2706K35,29,experiment,12,x,x,x,1.13449120009318,True,15
2A-DK2706K35,30,experiment,13,x,x,x,0.585266400128603,True,15
2A-DK2706K35,31,experiment,14,x,x,x,0.5254848999902606,True,15
2A-DK2706K35,32,training,14,z,m,m,0.6953664999455214,False,15
2A-DK2706K35,33,training,15,n,x,x,0.7395476000383496,False,15
2A-DK2706K35,34,experiment,12,n,n,n,0.7487800000235438,True,15
2A-DK2706K35,35,experiment,13,z,z,z,0.8983161998912692,True,15
2A-DK2706K35,36,experiment,14,n,no_key,no_letter,-1.0,False,15
2A-DK2706K35,37,experiment,15,n,m,m,0.6867407001554966,False,15
2A-DK2706K35,38,training,15,m,m,m,0.6428594999015331,True,16
2A-DK2706K35,39,training,14,m,m,m,0.6550833000801504,True,16
2A-DK2706K35,40,experiment,12,m,x,x,0.891538199968636,False,16
2A-DK2706K35,41,experiment,13,n,n,n,0.8218920999206603,True,16
2A-DK2706K35,42,experiment,15,n,n,n,0.6029595001600683,True,16
2A-DK2706K35,43,experiment,14,m,n,n,0.6295489999465644,False,16
2A-DK2706K35,44,training,15,m,n,n,0.8131238999776542,False,17
2A-DK2706K35,45,training,15,m,m,m,0.6664644000120461,True,17
2A-DK2706K35,46,experiment,12,m,n,n,1.7198310000821948,False,17
2A-DK2706K35,47,experiment,13,m,m,m,0.683124499861151,True,17
2A-DK2706K35,48,experiment,14,x,m,m,0.5591974998824298,False,17
2A-DK2706K35,49,experiment,15,x,n,n,0.7543482999317348,False,17
2A-DK2706K35,50,training,12,z,n,n,0.7759511996991932,False,18
2A-DK2706K35,51,training,12,n,m,m,0.7032847995869815,False,18
2A-DK2706K35,52,experiment,13,m,m,m,0.8943349001929164,True,18
2A-DK2706K35,53,experiment,12,x,x,x,1.259545600041747,True,18
2A-DK2706K35,54,experiment,15,z,x,x,0.875715599860996,False,18
2A-DK2706K35,55,experiment,14,m,n,n,0.6620427998714149,False,18
2A-DK2706K35,56,training,13,n,n,n,0.6161997998133302,True,18
2A-DK2706K35,57,training,14,n,n,n,0.5135424002073705,True,18
2A-DK2706K35,58,experiment,15,n,m,m,1.1156450998969376,False,18
2A-DK2706K35,59,experiment,12,n,n,n,0.5998554001562297,True,18
2A-DK2706K35,60,experiment,13,z,z,z,0.6553214001469314,True,18
2A-DK2706K35,61,experiment,14,x,x,x,0.7713432996533811,True,18
2A-DK2706K35,62,training,13,z,z,z,1.1175604998134077,True,18
2A-DK2706K35,63,training,14,n,n,n,0.866953699849546,True,18
2A-DK2706K35,64,experiment,15,m,m,m,0.5275365998968482,True,18
2A-DK2706K35,65,experiment,12,m,m,m,0.47652490017935634,True,18
2A-DK2706K35,66,experiment,14,x,z,z,0.9292214000597596,False,18
2A-DK2706K35,67,experiment,13,m,m,m,0.6726045999675989,True,18
2A-DK2706K35,68,training,15,x,x,x,0.7604926996864378,True,18
2A-DK2706K35,69,training,13,n,z,z,0.8601294998079538,False,18
2A-DK2706K35,70,experiment,14,z,z,z,0.8655034997500479,True,18
2A-DK2706K35,71,experiment,15,z,m,m,0.927241999655962,False,18
2A-DK2706K35,72,experiment,13,z,z,z,0.7633028998970985,True,18
2A-DK2706K35,73,experiment,12,m,m,m,0.5658678999170661,True,18
2A-DK2706K35,74,training,15,m,n,n,0.7687042998149991,False,18
2A-DK2706K35,75,training,13,z,z,z,0.8671011999249458,True,18
2A-DK2706K35,76,experiment,15,x,m,m,0.7626955001614988,False,18
2A-DK2706K35,77,experiment,14,n,n,n,0.41716739954426885,True,18
2A-DK2706K35,78,experiment,13,z,z,z,0.6946870000101626,True,18
2A-DK2706K35,79,experiment,12,z,z,z,0.617189799901098,True,18
2A-DK2706K35,80,training,14,z,z,z,1.5790494997054338,True,18
2A-DK2706K35,81,training,14,n,m,m,0.6343642002902925,False,18
2A-DK2706K35,82,experiment,13,x,x,x,0.9561783000826836,True,18
2A-DK2706K35,83,experiment,12,z,n,n,0.9852722999639809,False,18
2A-DK2706K35,84,experiment,15,n,n,n,0.6498218001797795,True,18
2A-DK2706K35,85,experiment,14,m,z,z,0.849394700024277,False,18
2A-DK2706K35,86,training,12,m,m,m,0.612708100117743,True,18
2A-DK2706K35,87,training,12,n,n,n,0.8019876000471413,True,18
2A-DK2706K35,88,experiment,13,n,n,n,0.7423264998942614,True,18
2A-DK2706K35,89,experiment,14,m,z,z,0.7410340001806617,False,18
2A-DK2706K35,90,experiment,12,n,n,n,0.7118710000067949,True,18
2A-DK2706K35,91,experiment,15,m,m,m,0.6622684001922607,True,18
