PART_ID,Trial_no,Trial_type,CSI,Stim_letter,Key_pressed,letter_choose,Rt,Corr,Stimulus Time
2A-DR1107M21,1,training,12,x,x,x,1.444568100036122,True,30
2A-DR1107M21,2,training,12,z,z,z,1.1118376000085846,True,30
2A-DR1107M21,3,training,12,m,m,m,0.6829103000927716,True,30
2A-DR1107M21,4,training,12,x,z,z,0.6172698999289423,False,30
2A-DR1107M21,5,training,12,z,z,z,0.6972043999703601,True,30
2A-DR1107M21,6,training,12,z,z,z,0.8075484000146389,True,30
2A-DR1107M21,7,training,12,x,x,x,1.1254425999941304,True,30
2A-DR1107M21,8,training,12,m,m,m,0.7059870000230148,True,30
2A-DR1107M21,9,training,12,x,x,x,1.0346398999681696,True,30
2A-DR1107M21,10,training,12,n,n,n,0.6807438000105321,True,30
2A-DR1107M21,11,training,12,z,z,z,0.8471455000108108,True,30
2A-DR1107M21,12,training,12,z,z,z,0.7831489000236616,True,30
2A-DR1107M21,13,training,12,x,x,x,0.6338340999791399,True,30
2A-DR1107M21,14,training,12,x,z,z,0.854645499959588,False,30
2A-DR1107M21,15,training,12,m,m,m,0.550556099973619,True,30
2A-DR1107M21,16,training,12,x,z,z,0.7602934999158606,False,18
2A-DR1107M21,17,training,12,z,z,z,0.5574295000405982,True,18
2A-DR1107M21,18,training,12,n,z,z,1.657454099971801,False,18
2A-DR1107M21,19,training,12,m,m,m,0.5959709000308067,True,18
2A-DR1107M21,20,training,12,m,m,m,0.5446292000124231,True,18
2A-DR1107M21,21,training,12,m,m,m,0.4168715999694541,True,18
2A-DR1107M21,22,training,12,n,n,n,0.4783340999856591,True,18
2A-DR1107M21,23,training,12,x,z,z,0.6430772000458091,False,18
2A-DR1107M21,24,training,12,x,z,z,1.770320300012827,False,18
2A-DR1107M21,25,training,12,z,z,z,0.5675818999297917,True,18
2A-DR1107M21,26,training,12,n,n,n,0.5164209000067785,True,15
2A-DR1107M21,27,training,14,z,z,z,0.6691166999517009,True,15
2A-DR1107M21,28,experiment,15,x,x,x,0.5899283000035211,True,15
2A-DR1107M21,29,experiment,14,n,m,m,1.3799418000271544,False,15
2A-DR1107M21,30,experiment,13,x,x,x,0.6371232999954373,True,15
2A-DR1107M21,31,experiment,12,z,z,z,1.270059400005266,True,15
2A-DR1107M21,32,training,13,n,z,z,1.4806753000011668,False,15
2A-DR1107M21,33,training,15,m,z,z,1.111752099939622,False,15
2A-DR1107M21,34,experiment,12,x,x,x,0.7514147999463603,True,15
2A-DR1107M21,35,experiment,14,x,x,x,0.7423840999836102,True,15
2A-DR1107M21,36,experiment,15,m,m,m,0.5135265000863001,True,15
2A-DR1107M21,37,experiment,13,z,z,z,1.094393500010483,True,15
2A-DR1107M21,38,training,12,z,z,z,0.848094700020738,True,14
2A-DR1107M21,39,training,14,z,z,z,0.8373838999541476,True,14
2A-DR1107M21,40,experiment,14,z,z,z,0.43431050004437566,True,14
2A-DR1107M21,41,experiment,15,z,x,x,1.3459986000088975,False,14
2A-DR1107M21,42,experiment,12,n,n,n,1.590506499982439,True,14
2A-DR1107M21,43,experiment,13,n,n,n,0.870165599975735,True,14
2A-DR1107M21,44,training,14,x,x,x,1.010462800040841,True,14
2A-DR1107M21,45,training,14,z,n,n,1.6287692000623792,False,14
2A-DR1107M21,46,experiment,15,n,z,z,1.1655510999262333,False,14
2A-DR1107M21,47,experiment,13,n,n,n,1.6577875999500975,True,14
2A-DR1107M21,48,experiment,12,x,n,n,1.4513034000992775,False,14
2A-DR1107M21,49,experiment,14,z,z,z,0.9446604000404477,True,14
2A-DR1107M21,50,training,12,x,x,x,1.101358399959281,True,15
2A-DR1107M21,51,training,14,x,n,n,1.5379917999962345,False,15
2A-DR1107M21,52,experiment,14,z,z,z,0.8394623000640422,True,15
2A-DR1107M21,53,experiment,12,z,z,z,0.8157980999676511,True,15
2A-DR1107M21,54,experiment,15,m,m,m,1.1485210000537336,True,15
2A-DR1107M21,55,experiment,13,m,x,x,1.2927600999828428,False,15
2A-DR1107M21,56,training,13,x,z,z,1.5643528000218794,False,15
2A-DR1107M21,57,training,14,z,no_key,no_letter,-1.0,False,15
2A-DR1107M21,58,experiment,12,n,n,n,0.9299332000082359,True,15
2A-DR1107M21,59,experiment,14,x,no_key,no_letter,-1.0,False,15
2A-DR1107M21,60,experiment,15,n,n,n,0.482681900030002,True,15
2A-DR1107M21,61,experiment,13,z,z,z,0.8568117999238893,True,15
2A-DR1107M21,62,training,15,x,n,n,1.178262099972926,False,15
2A-DR1107M21,63,training,13,x,z,z,0.4461647999705747,False,15
2A-DR1107M21,64,experiment,14,n,n,n,1.182472400018014,True,15
2A-DR1107M21,65,experiment,15,x,x,x,0.9661501999944448,True,15
2A-DR1107M21,66,experiment,13,x,x,x,1.2213457999750972,True,15
2A-DR1107M21,67,experiment,12,n,z,z,0.55220240005292,False,15
2A-DR1107M21,68,training,15,n,n,n,0.559672600007616,True,15
2A-DR1107M21,69,training,14,z,z,z,0.57568240002729,True,15
2A-DR1107M21,70,experiment,14,z,z,z,0.5959805999882519,True,15
2A-DR1107M21,71,experiment,13,m,m,m,0.5361965999472886,True,15
2A-DR1107M21,72,experiment,15,n,x,x,1.237552999984473,False,15
2A-DR1107M21,73,experiment,12,x,x,x,0.7571491000708193,True,15
2A-DR1107M21,74,training,15,x,x,x,0.5690639000386,True,15
2A-DR1107M21,75,training,12,z,no_key,no_letter,-1.0,False,15
2A-DR1107M21,76,experiment,14,x,n,n,0.8473914000205696,False,15
2A-DR1107M21,77,experiment,12,n,x,x,0.6018901000497863,False,15
2A-DR1107M21,78,experiment,13,n,n,n,0.4432883000699803,True,15
2A-DR1107M21,79,experiment,15,n,m,m,0.9174702001037076,False,15
2A-DR1107M21,80,training,15,z,z,z,1.0697005999973044,True,16
2A-DR1107M21,81,training,15,n,n,n,0.47479630005545914,True,16
2A-DR1107M21,82,experiment,13,m,m,m,0.5023009000578895,True,16
2A-DR1107M21,83,experiment,15,x,x,x,0.6039821000304073,True,16
2A-DR1107M21,84,experiment,14,m,m,m,0.5299218000145629,True,16
2A-DR1107M21,85,experiment,12,m,m,m,0.3838818999938667,True,16
2A-DR1107M21,86,training,13,m,m,m,0.9455697000958025,True,15
2A-DR1107M21,87,training,13,x,z,z,0.7930218999972567,False,15
2A-DR1107M21,88,experiment,14,n,m,m,0.7872234999667853,False,15
2A-DR1107M21,89,experiment,12,m,m,m,0.8925558000337332,True,15
2A-DR1107M21,90,experiment,15,z,m,m,1.1443966999650002,False,15
2A-DR1107M21,91,experiment,13,x,x,x,0.7255761999404058,True,15
