PART_ID,Trial_no,Trial_type,CSI,Stim_letter,Key_pressed,letter_choose,Rt,Corr,Stimulus Time
2A-JP0301M19,1,training,12,z,no_key,no_letter,-1.0,False,30
2A-JP0301M19,2,training,12,m,no_key,no_letter,-1.0,False,30
2A-JP0301M19,3,training,12,x,no_key,no_letter,-1.0,False,30
2A-JP0301M19,4,training,12,z,z,z,0.7113608000800014,True,30
2A-JP0301M19,5,training,12,n,n,n,0.7060426999814808,True,30
2A-JP0301M19,6,training,12,m,n,n,0.46770149981603026,False,30
2A-JP0301M19,7,training,12,m,m,m,0.7810766999609768,True,30
2A-JP0301M19,8,training,12,n,n,n,0.6844855002127588,True,30
2A-JP0301M19,9,training,12,x,z,z,0.5672058002091944,False,30
2A-JP0301M19,10,training,12,x,x,x,0.5671826000325382,True,30
2A-JP0301M19,11,training,12,z,z,z,0.4838932999409735,True,30
2A-JP0301M19,12,training,12,n,n,n,0.6174817001447082,True,30
2A-JP0301M19,13,training,12,x,x,x,1.6612570001743734,True,30
2A-JP0301M19,14,training,12,n,n,n,0.9436812000349164,True,30
2A-JP0301M19,15,training,12,x,x,x,1.7421756000258029,True,30
2A-JP0301M19,16,training,12,m,m,m,0.9921765998005867,True,18
2A-JP0301M19,17,training,12,m,n,n,1.4077985999174416,False,18
2A-JP0301M19,18,training,12,z,z,z,1.0071769999340177,True,18
2A-JP0301M19,19,training,12,z,z,z,0.943216500338167,True,18
2A-JP0301M19,20,training,12,x,x,x,1.4756521997042,True,18
2A-JP0301M19,21,training,12,z,z,z,1.352913800161332,True,18
2A-JP0301M19,22,training,12,m,m,m,0.709337200038135,True,18
2A-JP0301M19,23,training,12,x,x,x,1.2240961003117263,True,18
2A-JP0301M19,24,training,12,m,m,m,0.6508843000046909,True,18
2A-JP0301M19,25,training,12,z,z,z,0.7802057000808418,True,18
2A-JP0301M19,26,training,14,n,n,n,0.704851399641484,True,15
2A-JP0301M19,27,training,12,z,z,z,1.113136500120163,True,15
2A-JP0301M19,28,experiment,15,m,m,m,1.474665000103414,True,15
2A-JP0301M19,29,experiment,12,m,m,m,1.1051222998648882,True,15
2A-JP0301M19,30,experiment,14,x,z,z,1.0564307998865843,False,15
2A-JP0301M19,31,experiment,13,m,m,m,0.6431793998926878,True,15
2A-JP0301M19,32,training,14,n,n,n,0.5308841997757554,True,15
2A-JP0301M19,33,training,15,x,x,x,0.9654092001728714,True,15
2A-JP0301M19,34,experiment,12,z,z,z,0.717949999962002,True,15
2A-JP0301M19,35,experiment,14,z,z,z,0.6355117000639439,True,15
2A-JP0301M19,36,experiment,15,z,z,z,0.6657461002469063,True,15
2A-JP0301M19,37,experiment,13,x,x,x,0.633682900108397,True,15
2A-JP0301M19,38,training,14,x,x,x,0.8929330999962986,True,14
2A-JP0301M19,39,training,12,m,m,m,0.5438824002631009,True,14
2A-JP0301M19,40,experiment,14,n,n,n,0.6842229999601841,True,14
2A-JP0301M19,41,experiment,13,n,n,n,0.6540243998169899,True,14
2A-JP0301M19,42,experiment,15,m,m,m,0.5445520002394915,True,14
2A-JP0301M19,43,experiment,12,z,n,n,1.0803081998601556,False,14
2A-JP0301M19,44,training,14,m,n,n,0.7174714002758265,False,14
2A-JP0301M19,45,training,12,x,x,x,0.6455215001478791,True,14
2A-JP0301M19,46,experiment,13,x,x,x,0.6162016000598669,True,14
2A-JP0301M19,47,experiment,15,m,m,m,0.6137986001558602,True,14
2A-JP0301M19,48,experiment,12,x,x,x,0.9014272000640631,True,14
2A-JP0301M19,49,experiment,14,n,n,n,0.666030399966985,True,14
2A-JP0301M19,50,training,15,x,x,x,0.6181210000067949,True,13
2A-JP0301M19,51,training,13,z,z,z,0.6488707000389695,True,13
2A-JP0301M19,52,experiment,15,m,m,m,0.7177074002102017,True,13
2A-JP0301M19,53,experiment,12,z,no_key,no_letter,-1.0,False,13
2A-JP0301M19,54,experiment,14,m,m,m,0.7661854000762105,True,13
2A-JP0301M19,55,experiment,13,m,z,z,1.0280865002423525,False,13
2A-JP0301M19,56,training,12,m,m,m,0.5485634002834558,True,14
2A-JP0301M19,57,training,14,z,z,z,0.7421066998504102,True,14
2A-JP0301M19,58,experiment,12,n,n,n,0.426708800252527,True,14
2A-JP0301M19,59,experiment,13,x,x,x,1.094975700136274,True,14
2A-JP0301M19,60,experiment,14,n,n,n,0.6118982997722924,True,14
2A-JP0301M19,61,experiment,15,n,n,n,0.7280847001820803,True,14
2A-JP0301M19,62,training,14,m,m,m,0.5461647999472916,True,13
2A-JP0301M19,63,training,12,m,m,m,0.5245954999700189,True,13
2A-JP0301M19,64,experiment,12,x,x,x,0.8079193998128176,True,13
2A-JP0301M19,65,experiment,13,m,m,m,0.6542340996675193,True,13
2A-JP0301M19,66,experiment,15,m,x,x,1.350484199821949,False,13
2A-JP0301M19,67,experiment,14,z,x,x,1.0847805999219418,False,13
2A-JP0301M19,68,training,12,z,z,z,1.1241613999009132,True,14
2A-JP0301M19,69,training,13,m,m,m,0.6512480000965297,True,14
2A-JP0301M19,70,experiment,14,z,z,z,0.48856550035998225,True,14
2A-JP0301M19,71,experiment,15,m,m,m,0.6229269998148084,True,14
2A-JP0301M19,72,experiment,13,z,z,z,0.6817799997515976,True,14
2A-JP0301M19,73,experiment,12,x,x,x,0.8165747001767159,True,14
2A-JP0301M19,74,training,15,z,z,z,0.7377692996524274,True,13
2A-JP0301M19,75,training,14,m,m,m,0.6871915999799967,True,13
2A-JP0301M19,76,experiment,15,z,z,z,0.42100289976224303,True,13
2A-JP0301M19,77,experiment,14,m,x,x,0.7235987996682525,False,13
2A-JP0301M19,78,experiment,12,z,z,z,0.5609548999927938,True,13
2A-JP0301M19,79,experiment,13,n,z,z,0.4512487999163568,False,13
2A-JP0301M19,80,training,13,m,m,m,0.7128550000488758,True,14
2A-JP0301M19,81,training,12,n,n,n,0.8898081998340786,True,14
2A-JP0301M19,82,experiment,15,n,n,n,0.5521353003568947,True,14
2A-JP0301M19,83,experiment,12,m,m,m,0.5484643997624516,True,14
2A-JP0301M19,84,experiment,13,x,x,x,1.0897707999683917,True,14
2A-JP0301M19,85,experiment,14,z,x,x,1.4481140999123454,False,14
2A-JP0301M19,86,training,14,z,n,n,0.8924781000241637,False,14
2A-JP0301M19,87,training,13,z,z,z,0.932148199994117,True,14
2A-JP0301M19,88,experiment,12,x,x,x,0.8364332001656294,True,14
2A-JP0301M19,89,experiment,13,m,m,m,0.4983799997717142,True,14
2A-JP0301M19,90,experiment,15,n,n,n,0.645085799973458,True,14
2A-JP0301M19,91,experiment,14,n,n,n,0.7841616999357939,True,14
