PART_ID,Trial_no,Trial_type,CSI,Stim_letter,Key_pressed,letter_choose,Rt,Corr,Stimulus Time
2A-JG2005K20,1,training,12,x,x,x,1.2730938999447972,True,30
2A-JG2005K20,2,training,12,z,z,z,0.6173060000874102,True,30
2A-JG2005K20,3,training,12,z,z,z,0.7562529998831451,True,30
2A-JG2005K20,4,training,12,n,n,n,1.186890099896118,True,30
2A-JG2005K20,5,training,12,m,m,m,0.5505527001805604,True,30
2A-JG2005K20,6,training,12,z,z,z,0.729055600007996,True,30
2A-JG2005K20,7,training,12,x,x,x,0.617692600004375,True,30
2A-JG2005K20,8,training,12,x,x,x,0.6007275001611561,True,30
2A-JG2005K20,9,training,12,n,no_key,no_letter,-1.0,False,30
2A-JG2005K20,10,training,12,n,n,n,0.7069506000261754,True,30
2A-JG2005K20,11,training,12,n,n,n,0.5838147001340985,True,30
2A-JG2005K20,12,training,12,m,m,m,0.617140700109303,True,30
2A-JG2005K20,13,training,12,x,x,x,0.8808480000589043,True,30
2A-JG2005K20,14,training,12,n,n,n,0.6856954998802394,True,30
2A-JG2005K20,15,training,12,x,x,x,0.8645808000583202,True,30
2A-JG2005K20,16,training,12,x,x,x,0.6905193999409676,True,18
2A-JG2005K20,17,training,12,z,z,z,0.6915239000227302,True,18
2A-JG2005K20,18,training,12,m,m,m,0.7362889000214636,True,18
2A-JG2005K20,19,training,12,n,n,n,0.6538647999987006,True,18
2A-JG2005K20,20,training,12,m,m,m,0.6235606998670846,True,18
2A-JG2005K20,21,training,12,x,x,x,0.6479908998589963,True,18
2A-JG2005K20,22,training,12,n,n,n,0.713619900168851,True,18
2A-JG2005K20,23,training,12,n,n,n,0.5500308000482619,True,18
2A-JG2005K20,24,training,12,m,m,m,0.5329840001650155,True,18
2A-JG2005K20,25,training,12,x,x,x,0.6660219000186771,True,18
2A-JG2005K20,26,training,12,z,n,n,0.9840963999740779,False,15
2A-JG2005K20,27,training,12,m,m,m,0.776354500092566,True,15
2A-JG2005K20,28,experiment,14,z,x,x,0.7438463000580668,False,15
2A-JG2005K20,29,experiment,15,n,n,n,0.7471256998833269,True,15
2A-JG2005K20,30,experiment,12,z,z,z,0.6537941999267787,True,15
2A-JG2005K20,31,experiment,13,z,z,z,0.7270938998553902,True,15
2A-JG2005K20,32,training,15,x,x,x,0.7791561000049114,True,15
2A-JG2005K20,33,training,14,m,m,m,0.6445260001346469,True,15
2A-JG2005K20,34,experiment,15,x,x,x,0.8450429998338223,True,15
2A-JG2005K20,35,experiment,12,z,z,z,0.5982224000617862,True,15
2A-JG2005K20,36,experiment,13,m,m,m,0.680800300091505,True,15
2A-JG2005K20,37,experiment,14,n,z,z,1.2017345998901874,False,15
2A-JG2005K20,38,training,15,m,m,m,0.6758991999085993,True,15
2A-JG2005K20,39,training,15,x,x,x,0.7404638000298291,True,15
2A-JG2005K20,40,experiment,13,n,n,n,0.5987789002247155,True,15
2A-JG2005K20,41,experiment,12,x,x,x,0.7505206998903304,True,15
2A-JG2005K20,42,experiment,15,z,z,z,0.6471210001036525,True,15
2A-JG2005K20,43,experiment,14,n,m,m,0.8804440998937935,False,15
2A-JG2005K20,44,training,13,n,n,n,0.6133721999358386,True,15
2A-JG2005K20,45,training,13,n,n,n,0.7751953001134098,True,15
2A-JG2005K20,46,experiment,13,x,x,x,0.9423365998081863,True,15
2A-JG2005K20,47,experiment,12,n,n,n,0.8915810999460518,True,15
2A-JG2005K20,48,experiment,14,x,x,x,1.0191363000776619,True,15
2A-JG2005K20,49,experiment,15,x,z,z,1.094917400041595,False,15
2A-JG2005K20,50,training,12,m,m,m,0.6385856999550015,True,15
2A-JG2005K20,51,training,12,z,z,z,0.7607152999844402,True,15
2A-JG2005K20,52,experiment,13,z,z,z,0.6023613999132067,True,15
2A-JG2005K20,53,experiment,15,z,z,z,0.6086150000337511,True,15
2A-JG2005K20,54,experiment,14,m,m,m,0.6132747000083327,True,15
2A-JG2005K20,55,experiment,12,x,x,x,0.7952234998811036,True,15
2A-JG2005K20,56,training,14,x,x,x,0.6311308001168072,True,14
2A-JG2005K20,57,training,15,m,m,m,0.6413487999234349,True,14
2A-JG2005K20,58,experiment,12,x,m,m,0.8989053000696003,False,14
2A-JG2005K20,59,experiment,14,z,z,z,0.7168578000273556,True,14
2A-JG2005K20,60,experiment,15,x,z,z,0.8877346001099795,False,14
2A-JG2005K20,61,experiment,13,x,z,z,0.8326137000694871,False,14
2A-JG2005K20,62,training,15,x,x,x,0.7359275999478996,True,15
2A-JG2005K20,63,training,14,n,n,n,0.819156999932602,True,15
2A-JG2005K20,64,experiment,13,m,m,m,0.7265061000362039,True,15
2A-JG2005K20,65,experiment,12,z,z,z,0.7666742999572307,True,15
2A-JG2005K20,66,experiment,15,m,m,m,0.6502846998628229,True,15
2A-JG2005K20,67,experiment,14,z,z,z,0.7469287998974323,True,15
2A-JG2005K20,68,training,12,x,x,x,0.7007041000761092,True,14
2A-JG2005K20,69,training,12,z,z,z,0.7040661000646651,True,14
2A-JG2005K20,70,experiment,13,n,n,n,0.7068901997990906,True,14
2A-JG2005K20,71,experiment,15,m,m,m,0.571993299992755,True,14
2A-JG2005K20,72,experiment,14,x,x,x,0.7305831999983639,True,14
2A-JG2005K20,73,experiment,12,z,z,z,0.700731499819085,True,14
2A-JG2005K20,74,training,12,z,z,z,0.6855925000272691,True,13
2A-JG2005K20,75,training,13,m,m,m,0.7353795000817627,True,13
2A-JG2005K20,76,experiment,12,z,z,z,0.9723094999790192,True,13
2A-JG2005K20,77,experiment,15,x,m,m,0.9018874000757933,False,13
2A-JG2005K20,78,experiment,13,m,m,m,0.693981199990958,True,13
2A-JG2005K20,79,experiment,14,z,x,x,0.7438417999073863,False,13
2A-JG2005K20,80,training,15,z,z,z,0.7107287999242544,True,14
2A-JG2005K20,81,training,15,x,m,m,0.7379222000017762,False,14
2A-JG2005K20,82,experiment,12,n,n,n,0.6837883000262082,True,14
2A-JG2005K20,83,experiment,13,m,n,n,0.8010871999431401,False,14
2A-JG2005K20,84,experiment,14,n,n,n,0.6794221999589354,True,14
2A-JG2005K20,85,experiment,15,n,n,n,0.7242488998454064,True,14
2A-JG2005K20,86,training,14,m,m,m,0.6161805000156164,True,14
2A-JG2005K20,87,training,13,m,m,m,0.6215868000872433,True,14
2A-JG2005K20,88,experiment,12,m,z,z,0.7149268998764455,False,14
2A-JG2005K20,89,experiment,13,z,z,z,0.5953127997927368,True,14
2A-JG2005K20,90,experiment,14,m,m,m,0.7407579000573605,True,14
2A-JG2005K20,91,experiment,15,z,z,z,0.7026990000158548,True,14
