PART_ID,Trial_no,Trial_type,CSI,Stim_letter,Key_pressed,letter_choose,Rt,Corr,Stimulus Time
2A-JB2605K26,1,training,12,m,m,m,1.4511185998562723,True,30
2A-JB2605K26,2,training,12,z,z,z,1.3198768000584096,True,30
2A-JB2605K26,3,training,12,z,z,z,1.008582300040871,True,30
2A-JB2605K26,4,training,12,z,z,z,0.7830563001334667,True,30
2A-JB2605K26,5,training,12,x,x,x,1.1831172998063266,True,30
2A-JB2605K26,6,training,12,n,n,n,1.1337007998954505,True,30
2A-JB2605K26,7,training,12,m,m,m,0.5836856998503208,True,30
2A-JB2605K26,8,training,12,z,z,z,0.902255600085482,True,30
2A-JB2605K26,9,training,12,m,m,m,1.293147300137207,True,30
2A-JB2605K26,10,training,12,z,m,m,0.6172929999884218,False,30
2A-JB2605K26,11,training,12,x,x,x,1.2469896001275629,True,30
2A-JB2605K26,12,training,12,x,x,x,1.052043000003323,True,30
2A-JB2605K26,13,training,12,n,n,n,1.038829700089991,True,30
2A-JB2605K26,14,training,12,x,x,x,1.1609920000191778,True,30
2A-JB2605K26,15,training,12,z,z,z,1.0643898998387158,True,30
2A-JB2605K26,16,training,12,z,z,z,0.9879315998405218,True,18
2A-JB2605K26,17,training,12,z,z,z,1.2505499001126736,True,18
2A-JB2605K26,18,training,12,n,z,z,1.3192621998023242,False,18
2A-JB2605K26,19,training,12,z,z,z,0.738245900021866,True,18
2A-JB2605K26,20,training,12,z,z,z,1.0564818000420928,True,18
2A-JB2605K26,21,training,12,z,z,z,0.7240620001684874,True,18
2A-JB2605K26,22,training,12,x,x,x,1.1544154998846352,True,18
2A-JB2605K26,23,training,12,x,n,n,1.429948200006038,False,18
2A-JB2605K26,24,training,12,z,z,z,0.716432600049302,True,18
2A-JB2605K26,25,training,12,x,x,x,1.083747300086543,True,18
2A-JB2605K26,26,training,15,m,m,m,1.2446538000367582,True,15
2A-JB2605K26,27,training,15,x,x,x,1.041497000027448,True,15
2A-JB2605K26,28,experiment,13,z,z,z,0.8558710999786854,True,15
2A-JB2605K26,29,experiment,14,z,z,z,0.798378000035882,True,15
2A-JB2605K26,30,experiment,15,z,z,z,0.6613795999437571,True,15
2A-JB2605K26,31,experiment,12,z,z,z,0.6170689000282437,True,15
2A-JB2605K26,32,training,13,n,n,n,1.0153882000595331,True,14
2A-JB2605K26,33,training,14,z,z,z,0.6572608998976648,True,14
2A-JB2605K26,34,experiment,15,x,z,z,1.1490672999061644,False,14
2A-JB2605K26,35,experiment,12,n,n,n,1.1590097001753747,True,14
2A-JB2605K26,36,experiment,13,n,z,z,0.6815350998658687,False,14
2A-JB2605K26,37,experiment,14,z,z,z,0.8335138000547886,True,14
2A-JB2605K26,38,training,15,z,n,n,1.2697435999289155,False,15
2A-JB2605K26,39,training,15,x,n,n,1.0073893999215215,False,15
2A-JB2605K26,40,experiment,15,x,z,z,0.8765188998077065,False,15
2A-JB2605K26,41,experiment,14,x,x,x,1.39987160009332,True,15
2A-JB2605K26,42,experiment,13,n,n,n,1.0402275000233203,True,15
2A-JB2605K26,43,experiment,12,m,m,m,1.0031826000194997,True,15
2A-JB2605K26,44,training,14,z,z,z,0.9294165000319481,True,15
2A-JB2605K26,45,training,14,z,z,z,0.7658051999751478,True,15
2A-JB2605K26,46,experiment,15,n,n,n,0.8897074998822063,True,15
2A-JB2605K26,47,experiment,13,m,m,m,0.821126899914816,True,15
2A-JB2605K26,48,experiment,14,n,m,m,0.8649619999341667,False,15
2A-JB2605K26,49,experiment,12,z,z,z,0.7199852000921965,True,15
2A-JB2605K26,50,training,12,n,n,n,1.0376065999735147,True,15
2A-JB2605K26,51,training,14,z,n,n,0.9716479000635445,False,15
2A-JB2605K26,52,experiment,15,x,m,m,1.1084927001502365,False,15
2A-JB2605K26,53,experiment,14,z,z,z,0.8916033999994397,True,15
2A-JB2605K26,54,experiment,13,n,n,n,0.7348249999340624,True,15
2A-JB2605K26,55,experiment,12,m,m,m,1.2978526998776942,True,15
2A-JB2605K26,56,training,12,z,z,z,0.656451600138098,True,15
2A-JB2605K26,57,training,15,n,n,n,0.7507755998522043,True,15
2A-JB2605K26,58,experiment,12,x,n,n,1.2973937999922782,False,15
2A-JB2605K26,59,experiment,15,z,z,z,0.673333799932152,True,15
2A-JB2605K26,60,experiment,14,z,m,m,1.0104873001109809,False,15
2A-JB2605K26,61,experiment,13,z,n,n,1.0292384999338537,False,15
2A-JB2605K26,62,training,14,z,z,z,0.6365040000528097,True,16
2A-JB2605K26,63,training,14,x,n,n,0.9684456998948008,False,16
2A-JB2605K26,64,experiment,12,n,z,z,0.8206917000934482,False,16
2A-JB2605K26,65,experiment,15,x,x,x,1.0356839001178741,True,16
2A-JB2605K26,66,experiment,14,n,n,n,1.172515399986878,True,16
2A-JB2605K26,67,experiment,13,n,n,n,0.6948933999519795,True,16
2A-JB2605K26,68,training,13,z,z,z,0.6145268999971449,True,16
2A-JB2605K26,69,training,12,z,z,z,0.6286770000588149,True,16
2A-JB2605K26,70,experiment,14,n,n,n,0.6462055000010878,True,16
2A-JB2605K26,71,experiment,12,z,z,z,1.7321581998839974,True,16
2A-JB2605K26,72,experiment,15,x,n,n,0.9078458999283612,False,16
2A-JB2605K26,73,experiment,13,m,m,m,1.191872099880129,True,16
2A-JB2605K26,74,training,14,z,z,z,1.0957921999506652,True,16
2A-JB2605K26,75,training,12,z,z,z,0.8378167999908328,True,16
2A-JB2605K26,76,experiment,12,m,m,m,1.0405562000814825,True,16
2A-JB2605K26,77,experiment,14,m,m,m,0.687495999969542,True,16
2A-JB2605K26,78,experiment,13,m,m,m,0.7244080000091344,True,16
2A-JB2605K26,79,experiment,15,z,z,z,1.3087577999103814,True,16
2A-JB2605K26,80,training,15,n,n,n,0.7419358999468386,True,15
2A-JB2605K26,81,training,15,n,n,n,0.6431591999717057,True,15
2A-JB2605K26,82,experiment,12,x,m,m,1.2524435999803245,False,15
2A-JB2605K26,83,experiment,14,x,n,n,0.9848746999632567,False,15
2A-JB2605K26,84,experiment,15,n,n,n,0.8994386999402195,True,15
2A-JB2605K26,85,experiment,13,x,x,x,1.4185001000296324,True,15
2A-JB2605K26,86,training,14,n,n,n,0.9035130999982357,True,16
2A-JB2605K26,87,training,14,x,z,z,0.8214201999362558,False,16
2A-JB2605K26,88,experiment,12,x,x,x,1.5703940000385046,True,16
2A-JB2605K26,89,experiment,14,x,z,z,0.9531419000122696,False,16
2A-JB2605K26,90,experiment,13,m,m,m,0.807427000021562,True,16
2A-JB2605K26,91,experiment,15,n,n,n,0.8608020001556724,True,16
