PART_ID,Trial_no,Trial_type,CSI,Stim_letter,Key_pressed,letter_choose,Rt,Corr,Stimulus Time
2A-KB2905M24,1,training,12,x,z,z,0.7471611000364646,False,30
2A-KB2905M24,2,training,12,n,z,z,0.6338500999845564,False,30
2A-KB2905M24,3,training,12,m,m,m,0.8687840000493452,True,30
2A-KB2905M24,4,training,12,n,n,n,0.6972969999769703,True,30
2A-KB2905M24,5,training,12,x,x,x,0.9194107999792323,True,30
2A-KB2905M24,6,training,12,z,z,z,0.9691266000736505,True,30
2A-KB2905M24,7,training,12,n,n,n,0.6709703999804333,True,30
2A-KB2905M24,8,training,12,n,n,n,0.6713646999560297,True,30
2A-KB2905M24,9,training,12,n,no_key,no_letter,-1.0,False,30
2A-KB2905M24,10,training,12,z,z,z,0.6873346000211313,True,30
2A-KB2905M24,11,training,12,n,n,n,0.6805580001091585,True,30
2A-KB2905M24,12,training,12,x,z,z,0.7372213000198826,False,30
2A-KB2905M24,13,training,12,m,m,m,0.8007524999557063,True,30
2A-KB2905M24,14,training,12,n,n,n,0.7143143999855965,True,30
2A-KB2905M24,15,training,12,n,n,n,0.5004777000285685,True,30
2A-KB2905M24,16,training,12,n,n,n,0.665168899926357,True,18
2A-KB2905M24,17,training,12,n,n,n,0.5542210000567138,True,18
2A-KB2905M24,18,training,12,x,n,n,0.7624260999727994,False,18
2A-KB2905M24,19,training,12,x,z,z,0.8943197999615222,False,18
2A-KB2905M24,20,training,12,x,n,n,1.3501391999889165,False,18
2A-KB2905M24,21,training,12,m,m,m,0.5605831000721082,True,18
2A-KB2905M24,22,training,12,m,m,m,0.49022110004443675,True,18
2A-KB2905M24,23,training,12,z,z,z,0.8723417000146583,True,18
2A-KB2905M24,24,training,12,x,x,x,0.6033066000090912,True,18
2A-KB2905M24,25,training,12,m,z,z,1.1745009999722242,False,18
2A-KB2905M24,26,training,12,n,n,n,0.6378548999782652,True,15
2A-KB2905M24,27,training,14,x,z,z,1.0829681000905111,False,15
2A-KB2905M24,28,experiment,13,n,n,n,1.2922479000408202,True,15
2A-KB2905M24,29,experiment,15,m,m,m,0.6193091000895947,True,15
2A-KB2905M24,30,experiment,14,m,m,m,0.6270737999584526,True,15
2A-KB2905M24,31,experiment,12,m,m,m,0.8830143999075517,True,15
2A-KB2905M24,32,training,12,n,n,n,0.7683108999626711,True,14
2A-KB2905M24,33,training,15,x,z,z,1.5038453999441117,False,14
2A-KB2905M24,34,experiment,12,z,z,z,1.4644329999573529,True,14
2A-KB2905M24,35,experiment,14,z,n,n,0.8476981999119744,False,14
2A-KB2905M24,36,experiment,13,x,m,m,0.5723958000307903,False,14
2A-KB2905M24,37,experiment,15,m,m,m,0.6131626000860706,True,14
2A-KB2905M24,38,training,14,x,x,x,0.9851790999528021,True,15
2A-KB2905M24,39,training,15,x,x,x,0.6864941000239924,True,15
2A-KB2905M24,40,experiment,13,n,n,n,0.7526370000559837,True,15
2A-KB2905M24,41,experiment,14,z,z,z,0.6806839000200853,True,15
2A-KB2905M24,42,experiment,15,n,n,n,0.6464274999452755,True,15
2A-KB2905M24,43,experiment,12,z,z,z,0.7000497999833897,True,15
2A-KB2905M24,44,training,13,m,n,n,0.8955699000507593,False,14
2A-KB2905M24,45,training,15,m,m,m,0.5410321999806911,True,14
2A-KB2905M24,46,experiment,13,m,m,m,0.5982248999644071,True,14
2A-KB2905M24,47,experiment,12,z,z,z,0.8840107000432909,True,14
2A-KB2905M24,48,experiment,15,m,x,x,1.0201808999991044,False,14
2A-KB2905M24,49,experiment,14,m,z,z,0.8371179000241682,False,14
2A-KB2905M24,50,training,15,m,m,m,0.8171344000147656,True,15
2A-KB2905M24,51,training,15,m,m,m,0.5780630999943241,True,15
2A-KB2905M24,52,experiment,13,n,n,n,0.5557208999525756,True,15
2A-KB2905M24,53,experiment,15,z,z,z,0.7685512999305502,True,15
2A-KB2905M24,54,experiment,12,n,m,m,1.050098599982448,False,15
2A-KB2905M24,55,experiment,14,z,z,z,0.8838001999538392,True,15
2A-KB2905M24,56,training,15,n,m,m,0.6621621999656782,False,15
2A-KB2905M24,57,training,14,m,m,m,0.46664960007183254,True,15
2A-KB2905M24,58,experiment,15,m,m,m,0.48350610001944005,True,15
2A-KB2905M24,59,experiment,12,m,z,z,0.7155114999040961,False,15
2A-KB2905M24,60,experiment,13,n,z,z,0.9079869000706822,False,15
2A-KB2905M24,61,experiment,14,n,n,n,0.9390510999364778,True,15
2A-KB2905M24,62,training,13,x,n,n,0.8138019999023527,False,16
2A-KB2905M24,63,training,13,z,z,z,0.831258499994874,True,16
2A-KB2905M24,64,experiment,15,m,x,x,0.9352050001034513,False,16
2A-KB2905M24,65,experiment,12,x,n,n,0.7171360000502318,False,16
2A-KB2905M24,66,experiment,13,m,m,m,0.8319289999781176,True,16
2A-KB2905M24,67,experiment,14,n,n,n,0.8765065000625327,True,16
2A-KB2905M24,68,training,14,z,z,z,0.8372630999656394,True,17
2A-KB2905M24,69,training,15,x,x,x,0.5285983999492601,True,17
2A-KB2905M24,70,experiment,13,m,n,n,0.7362677999772131,False,17
2A-KB2905M24,71,experiment,12,x,x,x,0.9183159000240266,True,17
2A-KB2905M24,72,experiment,15,z,n,n,0.9395579999545589,False,17
2A-KB2905M24,73,experiment,14,n,n,n,1.0006682000821456,True,17
2A-KB2905M24,74,training,12,m,n,n,0.6171718999976292,False,18
2A-KB2905M24,75,training,13,n,x,x,1.1160906999139115,False,18
2A-KB2905M24,76,experiment,15,z,z,z,0.7549225999973714,True,18
2A-KB2905M24,77,experiment,14,n,x,x,0.8418158000567928,False,18
2A-KB2905M24,78,experiment,13,m,n,n,0.7143892000894994,False,18
2A-KB2905M24,79,experiment,12,x,x,x,0.8991318000480533,True,18
2A-KB2905M24,80,training,13,z,n,n,0.7602558999788016,False,18
2A-KB2905M24,81,training,15,m,m,m,1.9387841999996454,True,18
2A-KB2905M24,82,experiment,12,n,n,n,0.7432420999975875,True,18
2A-KB2905M24,83,experiment,14,z,z,z,0.896033399971202,True,18
2A-KB2905M24,84,experiment,13,x,n,n,0.6699548999313265,False,18
2A-KB2905M24,85,experiment,15,n,n,n,0.5532749999547377,True,18
2A-KB2905M24,86,training,12,m,m,m,1.081675700028427,True,18
2A-KB2905M24,87,training,14,z,x,x,1.0070783999981359,False,18
2A-KB2905M24,88,experiment,12,m,m,m,0.7273245999822393,True,18
2A-KB2905M24,89,experiment,13,z,z,z,0.7113593000685796,True,18
2A-KB2905M24,90,experiment,14,x,n,n,0.8325686999596655,False,18
2A-KB2905M24,91,experiment,15,n,n,n,0.7613579999888316,True,18
