PART_ID,Trial_no,Trial_type,CSI,Stim_letter,Key_pressed,letter_choose,Rt,Corr,Stimulus Time
2A-KC2209K30,1,training,12,n,n,n,1.1336853000102565,True,30
2A-KC2209K30,2,training,12,x,x,x,2.0254413999791723,True,30
2A-KC2209K30,3,training,12,z,z,z,1.2321663000038825,True,30
2A-KC2209K30,4,training,12,x,x,x,1.2358685999934096,True,30
2A-KC2209K30,5,training,12,m,m,m,1.165260700014187,True,30
2A-KC2209K30,6,training,12,m,m,m,1.1617550000082701,True,30
2A-KC2209K30,7,training,12,m,m,m,0.8745781000179704,True,30
2A-KC2209K30,8,training,12,z,no_key,no_letter,-1.0,False,30
2A-KC2209K30,9,training,12,m,m,m,0.736755699996138,True,30
2A-KC2209K30,10,training,12,z,z,z,1.1582949000003282,True,30
2A-KC2209K30,11,training,12,n,n,n,1.2312774999882095,True,30
2A-KC2209K30,12,training,12,n,n,n,0.9585583000152837,True,30
2A-KC2209K30,13,training,12,n,no_key,no_letter,-1.0,False,30
2A-KC2209K30,14,training,12,z,x,x,1.0009330999746453,False,30
2A-KC2209K30,15,training,12,n,n,n,1.3127916000084952,True,30
2A-KC2209K30,16,training,12,z,z,z,1.2703004999784753,True,18
2A-KC2209K30,17,training,12,m,m,m,0.8182101999991573,True,18
2A-KC2209K30,18,training,12,n,m,m,1.2701656999997795,False,18
2A-KC2209K30,19,training,12,n,n,n,1.3932006999966688,True,18
2A-KC2209K30,20,training,12,n,n,n,1.1922966999991331,True,18
2A-KC2209K30,21,training,12,n,n,n,0.9934010000142734,True,18
2A-KC2209K30,22,training,12,n,n,n,0.932972200011136,True,18
2A-KC2209K30,23,training,12,z,no_key,no_letter,-1.0,False,18
2A-KC2209K30,24,training,12,m,m,m,0.8533253000059631,True,18
2A-KC2209K30,25,training,12,z,z,z,1.7754770000174176,True,18
2A-KC2209K30,26,training,15,z,z,z,1.6143183000094723,True,15
2A-KC2209K30,27,training,15,z,n,n,1.1288506999844685,False,15
2A-KC2209K30,28,experiment,14,x,n,n,0.9866293000231963,False,15
2A-KC2209K30,29,experiment,13,m,m,m,0.6781800999888219,True,15
2A-KC2209K30,30,experiment,12,x,n,n,1.1350523000000976,False,15
2A-KC2209K30,31,experiment,15,z,n,n,1.0536515999992844,False,15
2A-KC2209K30,32,training,14,x,n,n,1.6059310999989975,False,16
2A-KC2209K30,33,training,14,m,m,m,0.7548712999850977,True,16
2A-KC2209K30,34,experiment,13,x,z,z,1.3458193000114989,False,16
2A-KC2209K30,35,experiment,12,m,m,m,0.8526058999996167,True,16
2A-KC2209K30,36,experiment,15,m,m,m,0.6525935000099707,True,16
2A-KC2209K30,37,experiment,14,x,x,x,1.327375499997288,True,16
2A-KC2209K30,38,training,15,n,x,x,1.4028939999989234,False,16
2A-KC2209K30,39,training,12,m,n,n,1.1541694999905303,False,16
2A-KC2209K30,40,experiment,12,x,x,x,1.2255841000005603,True,16
2A-KC2209K30,41,experiment,14,m,m,m,0.7606800000066869,True,16
2A-KC2209K30,42,experiment,13,z,z,z,1.128755200013984,True,16
2A-KC2209K30,43,experiment,15,z,z,z,0.7865020000026561,True,16
2A-KC2209K30,44,training,14,m,m,m,0.6422950999985915,True,15
2A-KC2209K30,45,training,15,x,m,m,1.1161626000248361,False,15
2A-KC2209K30,46,experiment,12,m,m,m,0.7148823000025004,True,15
2A-KC2209K30,47,experiment,15,m,m,m,0.5943935999821406,True,15
2A-KC2209K30,48,experiment,14,x,m,m,0.8570418000163045,False,15
2A-KC2209K30,49,experiment,13,n,n,n,0.8344400000059977,True,15
2A-KC2209K30,50,training,12,m,m,m,0.8085712000029162,True,15
2A-KC2209K30,51,training,14,x,x,x,1.0857736000034492,True,15
2A-KC2209K30,52,experiment,12,z,z,z,0.7006280999921728,True,15
2A-KC2209K30,53,experiment,14,x,x,x,0.8733604000008199,True,15
2A-KC2209K30,54,experiment,13,z,m,m,1.1798150000104215,False,15
2A-KC2209K30,55,experiment,15,n,n,n,1.0532925000006799,True,15
2A-KC2209K30,56,training,12,m,m,m,0.6742459000088274,True,15
2A-KC2209K30,57,training,15,z,n,n,0.8159166999976151,False,15
2A-KC2209K30,58,experiment,12,z,n,n,0.6782777000044007,False,15
2A-KC2209K30,59,experiment,13,n,n,n,0.5843749000050593,True,15
2A-KC2209K30,60,experiment,15,z,z,z,0.7791056999994908,True,15
2A-KC2209K30,61,experiment,14,m,m,m,0.5922396999958437,True,15
2A-KC2209K30,62,training,15,z,z,z,0.937619000003906,True,15
2A-KC2209K30,63,training,12,n,m,m,0.6287607999984175,False,15
2A-KC2209K30,64,experiment,13,z,m,m,0.6941961999982595,False,15
2A-KC2209K30,65,experiment,15,z,z,z,0.8510192999965511,True,15
2A-KC2209K30,66,experiment,14,x,m,m,0.6655157999775838,False,15
2A-KC2209K30,67,experiment,12,x,m,m,0.8141402000037488,False,15
2A-KC2209K30,68,training,12,n,m,m,0.6504739999945741,False,16
2A-KC2209K30,69,training,13,x,n,n,1.0060255999851506,False,16
2A-KC2209K30,70,experiment,13,z,z,z,0.6708602999860886,True,16
2A-KC2209K30,71,experiment,14,x,z,z,1.0777140999853145,False,16
2A-KC2209K30,72,experiment,15,n,n,n,0.7066604999999981,True,16
2A-KC2209K30,73,experiment,12,z,z,z,0.7089763999974821,True,16
2A-KC2209K30,74,training,12,m,m,m,0.6057762999844272,True,16
2A-KC2209K30,75,training,15,x,n,n,0.9383651000098325,False,16
2A-KC2209K30,76,experiment,15,x,z,z,0.7751663000090048,False,16
2A-KC2209K30,77,experiment,13,m,m,m,0.7814213999954518,True,16
2A-KC2209K30,78,experiment,14,m,m,m,0.7480055000050925,True,16
2A-KC2209K30,79,experiment,12,n,n,n,0.7424585999979172,True,16
2A-KC2209K30,80,training,15,z,z,z,1.3651491999917198,True,16
2A-KC2209K30,81,training,14,n,n,n,0.7113708000106271,True,16
2A-KC2209K30,82,experiment,13,n,n,n,0.5918041999975685,True,16
2A-KC2209K30,83,experiment,15,z,z,z,0.9119629999913741,True,16
2A-KC2209K30,84,experiment,12,x,z,z,0.9246627000102308,False,16
2A-KC2209K30,85,experiment,14,n,n,n,0.9035452999814879,True,16
2A-KC2209K30,86,training,12,m,m,m,0.6321576999907847,True,16
2A-KC2209K30,87,training,14,n,n,n,0.9295709000143688,True,16
2A-KC2209K30,88,experiment,15,m,m,m,0.8273390999820549,True,16
2A-KC2209K30,89,experiment,13,m,n,n,0.8369613000249956,False,16
2A-KC2209K30,90,experiment,12,x,m,m,0.6663935999968089,False,16
2A-KC2209K30,91,experiment,14,m,m,m,0.5864105999935418,True,16
