PART_ID,Trial_no,Trial_type,CSI,Stim_letter,Key_pressed,letter_choose,Rt,Corr,Stimulus Time
2A-KG0612K22,1,training,12,m,m,m,0.7714232001453638,True,30
2A-KG0612K22,2,training,12,n,n,n,0.45130780013278127,True,30
2A-KG0612K22,3,training,12,z,z,z,0.7830910000484437,True,30
2A-KG0612K22,4,training,12,n,n,n,0.7199919000267982,True,30
2A-KG0612K22,5,training,12,x,x,x,0.5502593999262899,True,30
2A-KG0612K22,6,training,12,z,x,x,1.1238714000210166,False,30
2A-KG0612K22,7,training,12,x,x,x,1.6978712000418454,True,30
2A-KG0612K22,8,training,12,m,m,m,0.6716444999910891,True,30
2A-KG0612K22,9,training,12,z,x,x,0.7022315999493003,False,30
2A-KG0612K22,10,training,12,n,n,n,0.9495669000316411,True,30
2A-KG0612K22,11,training,12,n,n,n,0.6340036001056433,True,30
2A-KG0612K22,12,training,12,x,x,x,0.8960478000808507,True,30
2A-KG0612K22,13,training,12,x,x,x,0.6674009000416845,True,30
2A-KG0612K22,14,training,12,m,m,m,0.9003243998158723,True,30
2A-KG0612K22,15,training,12,m,m,m,0.7390326999593526,True,30
2A-KG0612K22,16,training,12,x,x,x,0.6398197999224067,True,18
2A-KG0612K22,17,training,12,z,z,z,0.5781856998801231,True,18
2A-KG0612K22,18,training,12,z,z,z,1.2497874998953193,True,18
2A-KG0612K22,19,training,12,m,m,m,0.7789046999532729,True,18
2A-KG0612K22,20,training,12,x,x,x,0.7055749001447111,True,18
2A-KG0612K22,21,training,12,n,n,n,0.8870624001137912,True,18
2A-KG0612K22,22,training,12,z,z,z,0.8975845999084413,True,18
2A-KG0612K22,23,training,12,m,m,m,0.5133070999290794,True,18
2A-KG0612K22,24,training,12,x,z,z,1.0322227999567986,False,18
2A-KG0612K22,25,training,12,z,z,z,0.5904868999496102,True,18
2A-KG0612K22,26,training,15,x,n,n,0.9300094000063837,False,15
2A-KG0612K22,27,training,13,m,m,m,0.6903799998108298,True,15
2A-KG0612K22,28,experiment,13,x,x,x,0.6465489999391139,True,15
2A-KG0612K22,29,experiment,15,m,m,m,0.6478345999494195,True,15
2A-KG0612K22,30,experiment,12,m,m,m,0.7736830001231283,True,15
2A-KG0612K22,31,experiment,14,x,x,x,0.6949944999068975,True,15
2A-KG0612K22,32,training,13,z,x,x,0.732393000042066,False,14
2A-KG0612K22,33,training,13,z,x,x,0.8468297999352217,False,14
2A-KG0612K22,34,experiment,15,m,m,m,0.6958107000682503,True,14
2A-KG0612K22,35,experiment,12,x,x,x,0.7237576998304576,True,14
2A-KG0612K22,36,experiment,13,m,m,m,0.5827526999637485,True,14
2A-KG0612K22,37,experiment,14,m,m,m,1.0515586000401527,True,14
2A-KG0612K22,38,training,12,z,z,z,0.6930845999158919,True,13
2A-KG0612K22,39,training,14,x,x,x,0.6689004998188466,True,13
2A-KG0612K22,40,experiment,12,m,m,m,0.5365275999065489,True,13
2A-KG0612K22,41,experiment,14,z,z,z,0.4908975998405367,True,13
2A-KG0612K22,42,experiment,15,n,n,n,0.6779626000206918,True,13
2A-KG0612K22,43,experiment,13,z,z,z,0.5358849000185728,True,13
2A-KG0612K22,44,training,15,z,z,z,0.47845769999548793,True,12
2A-KG0612K22,45,training,13,x,x,x,0.6361751998774707,True,12
2A-KG0612K22,46,experiment,12,z,z,z,0.5456594000570476,True,12
2A-KG0612K22,47,experiment,13,m,m,m,0.6859512999653816,True,12
2A-KG0612K22,48,experiment,15,x,x,x,0.5552194002084434,True,12
2A-KG0612K22,49,experiment,14,m,n,n,1.3118693998549134,False,12
2A-KG0612K22,50,training,13,n,m,m,0.7774306000210345,False,12
2A-KG0612K22,51,training,12,m,m,m,0.5210764000657946,True,12
2A-KG0612K22,52,experiment,12,m,x,x,1.0406011999584734,False,12
2A-KG0612K22,53,experiment,15,z,z,z,0.8090522000566125,True,12
2A-KG0612K22,54,experiment,13,m,m,m,0.48864590004086494,True,12
2A-KG0612K22,55,experiment,14,z,x,x,1.0700436001643538,False,12
2A-KG0612K22,56,training,14,n,m,m,1.3359193000942469,False,13
2A-KG0612K22,57,training,13,m,m,m,0.6812577000819147,True,13
2A-KG0612K22,58,experiment,12,n,n,n,0.5704485001042485,True,13
2A-KG0612K22,59,experiment,14,n,n,n,0.47316280007362366,True,13
2A-KG0612K22,60,experiment,13,z,z,z,0.6501121001783758,True,13
2A-KG0612K22,61,experiment,15,z,z,z,1.0193275997880846,True,13
2A-KG0612K22,62,training,13,m,m,m,0.8737198000308126,True,12
2A-KG0612K22,63,training,15,m,z,z,0.9663999998010695,False,12
2A-KG0612K22,64,experiment,13,z,z,z,0.6972970999777317,True,12
2A-KG0612K22,65,experiment,15,z,n,n,0.8982565000187606,False,12
2A-KG0612K22,66,experiment,14,z,z,z,0.514613299863413,True,12
2A-KG0612K22,67,experiment,12,n,m,m,0.8442515998613089,False,12
2A-KG0612K22,68,training,15,z,m,m,1.095493999775499,False,13
2A-KG0612K22,69,training,15,z,z,z,1.00407260004431,True,13
2A-KG0612K22,70,experiment,15,n,n,n,1.1306253999937326,True,13
2A-KG0612K22,71,experiment,14,z,z,z,0.6649865999352187,True,13
2A-KG0612K22,72,experiment,12,m,m,m,1.0687122999224812,True,13
2A-KG0612K22,73,experiment,13,z,n,n,0.7727727999445051,False,13
2A-KG0612K22,74,training,14,m,n,n,1.0969078000634909,False,13
2A-KG0612K22,75,training,15,n,n,n,1.3216911000199616,True,13
2A-KG0612K22,76,experiment,12,x,x,x,0.8148008000571281,True,13
2A-KG0612K22,77,experiment,15,z,z,z,0.5033275000751019,True,13
2A-KG0612K22,78,experiment,13,m,m,m,0.6292272000573575,True,13
2A-KG0612K22,79,experiment,14,x,x,x,0.6102779000066221,True,13
2A-KG0612K22,80,training,15,z,n,n,0.8706730999983847,False,12
2A-KG0612K22,81,training,12,x,x,x,0.6618241998367012,True,12
2A-KG0612K22,82,experiment,15,m,m,m,0.7928474999498576,True,12
2A-KG0612K22,83,experiment,13,n,n,n,0.8821093000005931,True,12
2A-KG0612K22,84,experiment,14,m,x,x,0.9413863997906446,False,12
2A-KG0612K22,85,experiment,12,x,m,m,0.7603674000129104,False,12
2A-KG0612K22,86,training,13,n,n,n,0.7021836000494659,True,13
2A-KG0612K22,87,training,14,m,m,m,0.5189638999290764,True,13
2A-KG0612K22,88,experiment,15,x,x,x,0.7024662999901921,True,13
2A-KG0612K22,89,experiment,12,n,n,n,0.49414759990759194,True,13
2A-KG0612K22,90,experiment,14,z,z,z,0.6455570000689477,True,13
2A-KG0612K22,91,experiment,13,x,n,n,0.8886929999571294,False,13
