PART_ID,Trial_no,Trial_type,CSI,Stim_letter,Key_pressed,letter_choose,Rt,Corr,Stimulus Time
2A-KB0511K29,1,training,12,z,z,z,1.0210904000559822,True,30
2A-KB0511K29,2,training,12,n,n,n,0.8804853999754414,True,30
2A-KB0511K29,3,training,12,x,x,x,1.042554600047879,True,30
2A-KB0511K29,4,training,12,x,x,x,0.7555271999444813,True,30
2A-KB0511K29,5,training,12,m,m,m,1.201499899965711,True,30
2A-KB0511K29,6,training,12,x,x,x,1.1436520999995992,True,30
2A-KB0511K29,7,training,12,z,z,z,1.2390128000406548,True,30
2A-KB0511K29,8,training,12,z,z,z,1.3828982000704855,True,30
2A-KB0511K29,9,training,12,x,x,x,0.8272349999751896,True,30
2A-KB0511K29,10,training,12,n,n,n,0.982523100101389,True,30
2A-KB0511K29,11,training,12,n,n,n,0.9117933999514207,True,30
2A-KB0511K29,12,training,12,n,n,n,0.7089440999552608,True,30
2A-KB0511K29,13,training,12,z,z,z,1.5924948999891058,True,30
2A-KB0511K29,14,training,12,x,x,x,0.8438939999323338,True,30
2A-KB0511K29,15,training,12,n,n,n,1.4477950999280438,True,30
2A-KB0511K29,16,training,12,z,z,z,0.8581076000118628,True,18
2A-KB0511K29,17,training,12,m,m,m,1.0481413000961766,True,18
2A-KB0511K29,18,training,12,n,z,z,1.2748211999423802,False,18
2A-KB0511K29,19,training,12,x,x,x,0.9622518999967724,True,18
2A-KB0511K29,20,training,12,x,x,x,1.176381100085564,True,18
2A-KB0511K29,21,training,12,z,z,z,0.9654481000034139,True,18
2A-KB0511K29,22,training,12,m,n,n,0.8902516999514773,False,18
2A-KB0511K29,23,training,12,m,m,m,0.6793507999973372,True,18
2A-KB0511K29,24,training,12,n,n,n,0.7939238999970257,True,18
2A-KB0511K29,25,training,12,m,n,n,1.097997899982147,False,18
2A-KB0511K29,26,training,13,x,x,x,0.8579063999932259,True,15
2A-KB0511K29,27,training,13,n,z,z,1.4474551000166684,False,15
2A-KB0511K29,28,experiment,12,x,x,x,0.7660306999459863,True,15
2A-KB0511K29,29,experiment,14,x,x,x,1.1198106999509037,True,15
2A-KB0511K29,30,experiment,15,n,z,z,1.0875889000017196,False,15
2A-KB0511K29,31,experiment,13,z,n,n,0.8949671000009403,False,15
2A-KB0511K29,32,training,12,x,z,z,1.1820287000155076,False,16
2A-KB0511K29,33,training,13,n,z,z,0.9906687999609858,False,16
2A-KB0511K29,34,experiment,14,m,m,m,0.8034254999365658,True,16
2A-KB0511K29,35,experiment,15,z,z,z,0.6819601999595761,True,16
2A-KB0511K29,36,experiment,13,z,z,z,0.7084232999477535,True,16
2A-KB0511K29,37,experiment,12,x,x,x,0.7383034999947995,True,16
2A-KB0511K29,38,training,15,n,n,n,0.8367955000139773,True,15
2A-KB0511K29,39,training,13,z,z,z,1.0709433000301942,True,15
2A-KB0511K29,40,experiment,15,m,m,m,0.9584886999800801,True,15
2A-KB0511K29,41,experiment,14,z,x,x,1.5331183000234887,False,15
2A-KB0511K29,42,experiment,12,n,n,n,0.9499188999179751,True,15
2A-KB0511K29,43,experiment,13,z,z,z,0.9387998000020161,True,15
2A-KB0511K29,44,training,15,n,x,x,1.1381368999136612,False,15
2A-KB0511K29,45,training,13,n,z,z,1.1047619000310078,False,15
2A-KB0511K29,46,experiment,14,x,m,m,1.2774163000285625,False,15
2A-KB0511K29,47,experiment,13,m,m,m,0.7848681000759825,True,15
2A-KB0511K29,48,experiment,15,n,z,z,1.4161390999797732,False,15
2A-KB0511K29,49,experiment,12,x,x,x,0.9744974999921396,True,15
2A-KB0511K29,50,training,14,m,n,n,0.8937162000220269,False,16
2A-KB0511K29,51,training,14,m,m,m,0.816219599917531,True,16
2A-KB0511K29,52,experiment,15,z,z,z,1.031855099950917,True,16
2A-KB0511K29,53,experiment,13,z,z,z,0.7703992000315338,True,16
2A-KB0511K29,54,experiment,14,n,n,n,1.0532658000010997,True,16
2A-KB0511K29,55,experiment,12,x,x,x,0.8644796999869868,True,16
2A-KB0511K29,56,training,14,x,x,x,0.7836769999703392,True,15
2A-KB0511K29,57,training,15,z,z,z,0.6617443000432104,True,15
2A-KB0511K29,58,experiment,15,n,n,n,0.8624070000369102,True,15
2A-KB0511K29,59,experiment,14,z,x,x,0.9549112999811769,False,15
2A-KB0511K29,60,experiment,12,m,m,m,1.220266499905847,True,15
2A-KB0511K29,61,experiment,13,z,z,z,1.027016699896194,True,15
2A-KB0511K29,62,training,14,m,m,m,0.8986006999621168,True,15
2A-KB0511K29,63,training,14,n,n,n,0.9847487999359146,True,15
2A-KB0511K29,64,experiment,15,z,z,z,1.0034039999591187,True,15
2A-KB0511K29,65,experiment,14,x,x,x,0.8506438001058996,True,15
2A-KB0511K29,66,experiment,12,z,z,z,0.6501678000204265,True,15
2A-KB0511K29,67,experiment,13,z,z,z,0.6884064000332728,True,15
2A-KB0511K29,68,training,14,x,x,x,1.7564323999686167,True,14
2A-KB0511K29,69,training,15,x,z,z,0.9945955999428406,False,14
2A-KB0511K29,70,experiment,14,z,z,z,0.8368694999953732,True,14
2A-KB0511K29,71,experiment,15,m,z,z,1.6804192999843508,False,14
2A-KB0511K29,72,experiment,12,x,x,x,0.825466200010851,True,14
2A-KB0511K29,73,experiment,13,m,m,m,0.5771241000620648,True,14
2A-KB0511K29,74,training,13,x,z,z,0.7991790000814945,False,14
2A-KB0511K29,75,training,15,m,m,m,0.8126658999826759,True,14
2A-KB0511K29,76,experiment,15,m,x,x,1.26636020001024,False,14
2A-KB0511K29,77,experiment,13,z,x,x,1.1553970000240952,False,14
2A-KB0511K29,78,experiment,14,m,n,n,1.273443799931556,False,14
2A-KB0511K29,79,experiment,12,z,m,m,1.2235769999679178,False,14
2A-KB0511K29,80,training,12,m,no_key,no_letter,-1.0,False,15
2A-KB0511K29,81,training,15,m,m,m,0.8060292000882328,True,15
2A-KB0511K29,82,experiment,15,z,x,x,1.0752061000093818,False,15
2A-KB0511K29,83,experiment,13,z,z,z,0.7237626999849454,True,15
2A-KB0511K29,84,experiment,12,z,x,x,0.9035667999414727,False,15
2A-KB0511K29,85,experiment,14,z,m,m,1.639610799960792,False,15
2A-KB0511K29,86,training,12,n,z,z,1.235911100055091,False,16
2A-KB0511K29,87,training,13,n,n,n,0.7717458000406623,True,16
2A-KB0511K29,88,experiment,15,z,x,x,1.2886594999581575,False,16
2A-KB0511K29,89,experiment,14,n,z,z,0.9994201000081375,False,16
2A-KB0511K29,90,experiment,13,n,n,n,0.7940531999338418,True,16
2A-KB0511K29,91,experiment,12,x,m,m,0.8441156999906525,False,16
