PART_ID,Trial_no,Trial_type,CSI,Stim_letter,Key_pressed,letter_choose,Rt,Corr,Stimulus Time
2A-LM2202M27,1,training,12,n,n,n,1.0799218999454752,True,30
2A-LM2202M27,2,training,12,m,m,m,0.6722248999867588,True,30
2A-LM2202M27,3,training,12,x,x,x,0.983141400036402,True,30
2A-LM2202M27,4,training,12,m,m,m,0.8494598999386653,True,30
2A-LM2202M27,5,training,12,x,x,x,0.7955211000517011,True,30
2A-LM2202M27,6,training,12,n,n,n,0.9569369999226183,True,30
2A-LM2202M27,7,training,12,x,n,n,1.6187241999432445,False,30
2A-LM2202M27,8,training,12,n,n,n,0.7863509999588132,True,30
2A-LM2202M27,9,training,12,n,n,n,0.6173126000212505,True,30
2A-LM2202M27,10,training,12,m,m,m,0.8515310999937356,True,30
2A-LM2202M27,11,training,12,x,no_key,no_letter,-1.0,False,30
2A-LM2202M27,12,training,12,n,n,n,0.5669518000213429,True,30
2A-LM2202M27,13,training,12,m,m,m,0.5505962000461295,True,30
2A-LM2202M27,14,training,12,n,n,n,0.8527872000122443,True,30
2A-LM2202M27,15,training,12,m,n,n,0.7505747999530286,False,30
2A-LM2202M27,16,training,12,m,no_key,no_letter,-1.0,False,18
2A-LM2202M27,17,training,12,n,n,n,0.7498657000251114,True,18
2A-LM2202M27,18,training,12,n,m,m,0.5686409999616444,False,18
2A-LM2202M27,19,training,12,m,m,m,0.7268320999573916,True,18
2A-LM2202M27,20,training,12,z,z,z,0.9661145999561995,True,18
2A-LM2202M27,21,training,12,x,x,x,1.0030703999800608,True,18
2A-LM2202M27,22,training,12,m,m,m,0.7469397999811918,True,18
2A-LM2202M27,23,training,12,n,n,n,0.8424189999932423,True,18
2A-LM2202M27,24,training,12,x,x,x,0.8590250000124797,True,18
2A-LM2202M27,25,training,12,z,z,z,0.8440976999700069,True,18
2A-LM2202M27,26,training,13,n,n,n,0.7927532000467181,True,15
2A-LM2202M27,27,training,12,n,n,n,0.8787227999418974,True,15
2A-LM2202M27,28,experiment,12,z,n,n,0.7599982999963686,False,15
2A-LM2202M27,29,experiment,15,m,m,m,0.5329333000117913,True,15
2A-LM2202M27,30,experiment,13,z,z,z,0.6762100000632927,True,15
2A-LM2202M27,31,experiment,14,m,x,x,1.3358656000345945,False,15
2A-LM2202M27,32,training,14,n,n,n,0.7106224000453949,True,16
2A-LM2202M27,33,training,12,x,x,x,0.9569478000048548,True,16
2A-LM2202M27,34,experiment,12,x,x,x,0.8053041000384837,True,16
2A-LM2202M27,35,experiment,15,m,m,m,0.6164910999359563,True,16
2A-LM2202M27,36,experiment,13,z,n,n,0.8598800000036135,False,16
2A-LM2202M27,37,experiment,14,z,n,n,0.7970368000678718,False,16
2A-LM2202M27,38,training,12,x,x,x,1.6753030000254512,True,17
2A-LM2202M27,39,training,13,m,n,n,0.5830937999999151,False,17
2A-LM2202M27,40,experiment,14,z,x,x,0.6102704999502748,False,17
2A-LM2202M27,41,experiment,12,x,n,n,1.1329501000000164,False,17
2A-LM2202M27,42,experiment,13,z,m,m,0.8543412999715656,False,17
2A-LM2202M27,43,experiment,15,z,z,z,0.851791400113143,True,17
2A-LM2202M27,44,training,14,x,m,m,1.0902483999961987,False,18
2A-LM2202M27,45,training,13,z,m,m,0.8613390999380499,False,18
2A-LM2202M27,46,experiment,14,m,m,m,0.8184462999925017,True,18
2A-LM2202M27,47,experiment,12,m,m,m,0.7181674999883398,True,18
2A-LM2202M27,48,experiment,15,n,n,n,0.6085313999792561,True,18
2A-LM2202M27,49,experiment,13,n,n,n,1.9581627000588924,True,18
2A-LM2202M27,50,training,12,x,n,n,0.9736587998922914,False,17
2A-LM2202M27,51,training,12,n,n,n,0.5839788999874145,True,17
2A-LM2202M27,52,experiment,15,m,m,m,0.8268199000740424,True,17
2A-LM2202M27,53,experiment,12,m,m,m,0.8614372001029551,True,17
2A-LM2202M27,54,experiment,13,m,m,m,0.9432458999799564,True,17
2A-LM2202M27,55,experiment,14,z,n,n,0.6994819999672472,False,17
2A-LM2202M27,56,training,15,z,x,x,0.8707685000263155,False,17
2A-LM2202M27,57,training,15,n,n,n,0.9057521999347955,True,17
2A-LM2202M27,58,experiment,15,x,z,z,1.0205012999940664,False,17
2A-LM2202M27,59,experiment,13,m,m,m,1.539881099946797,True,17
2A-LM2202M27,60,experiment,14,z,z,z,1.0536565999500453,True,17
2A-LM2202M27,61,experiment,12,n,z,z,0.9979481000918895,False,17
2A-LM2202M27,62,training,15,x,n,n,0.7154342000139877,False,18
2A-LM2202M27,63,training,15,z,z,z,1.0919587999815121,True,18
2A-LM2202M27,64,experiment,14,x,x,x,0.8897741999244317,True,18
2A-LM2202M27,65,experiment,12,z,z,z,0.7918151000048965,True,18
2A-LM2202M27,66,experiment,15,z,n,n,0.7945319999707863,False,18
2A-LM2202M27,67,experiment,13,m,m,m,0.6371907000429928,True,18
2A-LM2202M27,68,training,15,z,z,z,1.3844081999268383,True,18
2A-LM2202M27,69,training,15,x,x,x,0.8185573000228032,True,18
2A-LM2202M27,70,experiment,14,x,m,m,0.8941349999513477,False,18
2A-LM2202M27,71,experiment,15,n,n,n,0.8829647999955341,True,18
2A-LM2202M27,72,experiment,12,z,x,x,0.887686499976553,False,18
2A-LM2202M27,73,experiment,13,z,z,z,0.5602824001107365,True,18
2A-LM2202M27,74,training,15,n,n,n,0.8849514999892563,True,18
2A-LM2202M27,75,training,15,n,n,n,0.9381504999473691,True,18
2A-LM2202M27,76,experiment,14,n,n,n,0.6468952000141144,True,18
2A-LM2202M27,77,experiment,15,m,m,m,0.5250129000050947,True,18
2A-LM2202M27,78,experiment,12,x,n,n,0.86947220005095,False,18
2A-LM2202M27,79,experiment,13,z,z,z,0.5928273999597877,True,18
2A-LM2202M27,80,training,12,m,m,m,0.5365555000025779,True,18
2A-LM2202M27,81,training,12,m,m,m,0.4170353999361396,True,18
2A-LM2202M27,82,experiment,12,n,n,n,0.7233900000574067,True,18
2A-LM2202M27,83,experiment,14,n,n,n,0.8844074999215081,True,18
2A-LM2202M27,84,experiment,15,m,m,m,0.773632499971427,True,18
2A-LM2202M27,85,experiment,13,m,m,m,0.6254837999586016,True,18
2A-LM2202M27,86,training,13,n,n,n,0.736271100002341,True,17
2A-LM2202M27,87,training,13,n,n,n,0.48949519998859614,True,17
2A-LM2202M27,88,experiment,12,m,x,x,1.7115342000033706,False,17
2A-LM2202M27,89,experiment,14,n,x,x,1.2132855999516323,False,17
2A-LM2202M27,90,experiment,13,m,m,m,0.6590860000578687,True,17
2A-LM2202M27,91,experiment,15,z,n,n,0.7893668999895453,False,17
