PART_ID,Trial_no,Trial_type,CSI,Stim_letter,Key_pressed,letter_choose,Rt,Corr,Stimulus Time
2A-MR1711K24,1,training,12,m,m,m,1.1851462999911746,True,30
2A-MR1711K24,2,training,12,n,n,n,0.46793859999161214,True,30
2A-MR1711K24,3,training,12,n,n,n,0.5003913000109605,True,30
2A-MR1711K24,4,training,12,n,n,n,0.5007222999993246,True,30
2A-MR1711K24,5,training,12,m,m,m,0.6171944000088843,True,30
2A-MR1711K24,6,training,12,z,z,z,1.0178771000064444,True,30
2A-MR1711K24,7,training,12,z,z,z,0.8384212000091793,True,30
2A-MR1711K24,8,training,12,m,m,m,0.696435299993027,True,30
2A-MR1711K24,9,training,12,z,z,z,1.8792669999966165,True,30
2A-MR1711K24,10,training,12,z,z,z,0.8588539000047604,True,30
2A-MR1711K24,11,training,12,n,n,n,1.1579261000006227,True,30
2A-MR1711K24,12,training,12,m,m,m,0.6863509999966482,True,30
2A-MR1711K24,13,training,12,x,x,x,0.746911900001578,True,30
2A-MR1711K24,14,training,12,x,x,x,0.5011074999929406,True,30
2A-MR1711K24,15,training,12,m,m,m,0.6338574999972479,True,30
2A-MR1711K24,16,training,12,m,m,m,1.113887600004091,True,18
2A-MR1711K24,17,training,12,z,z,z,1.0526594999973895,True,18
2A-MR1711K24,18,training,12,m,m,m,0.48842739999236073,True,18
2A-MR1711K24,19,training,12,n,n,n,0.4931477999925846,True,18
2A-MR1711K24,20,training,12,n,n,n,0.41710130000137724,True,18
2A-MR1711K24,21,training,12,m,n,n,1.030686100013554,False,18
2A-MR1711K24,22,training,12,z,z,z,1.8914117999956943,True,18
2A-MR1711K24,23,training,12,n,n,n,1.4435549000045285,True,18
2A-MR1711K24,24,training,12,z,n,n,1.1139809000014793,False,18
2A-MR1711K24,25,training,12,z,z,z,1.0770589999883668,True,18
2A-MR1711K24,26,training,15,m,m,m,0.8580528000020422,True,15
2A-MR1711K24,27,training,12,z,z,z,0.8460421000054339,True,15
2A-MR1711K24,28,experiment,12,n,n,n,0.5612739000061993,True,15
2A-MR1711K24,29,experiment,13,z,z,z,1.3423220999975456,True,15
2A-MR1711K24,30,experiment,14,x,x,x,0.981391799999983,True,15
2A-MR1711K24,31,experiment,15,n,n,n,0.8883930000010878,True,15
2A-MR1711K24,32,training,14,m,m,m,0.8529943000030471,True,14
2A-MR1711K24,33,training,13,x,x,x,0.8638986000005389,True,14
2A-MR1711K24,34,experiment,13,n,n,n,0.6986611999891466,True,14
2A-MR1711K24,35,experiment,14,m,n,n,0.8777383999986341,False,14
2A-MR1711K24,36,experiment,15,x,x,x,0.8759639000054449,True,14
2A-MR1711K24,37,experiment,12,z,z,z,1.1399281000049086,True,14
2A-MR1711K24,38,training,13,n,z,z,0.9828245999960927,False,14
2A-MR1711K24,39,training,12,z,z,z,0.7483878000057302,True,14
2A-MR1711K24,40,experiment,13,m,m,m,0.7741390000010142,True,14
2A-MR1711K24,41,experiment,12,n,n,n,0.6334103999979561,True,14
2A-MR1711K24,42,experiment,15,n,no_key,no_letter,-1.0,False,14
2A-MR1711K24,43,experiment,14,z,z,z,0.8686330000055023,True,14
2A-MR1711K24,44,training,12,n,n,n,0.5423059000022477,True,14
2A-MR1711K24,45,training,13,x,x,x,0.8274800000071991,True,14
2A-MR1711K24,46,experiment,14,m,n,n,0.768556199996965,False,14
2A-MR1711K24,47,experiment,15,x,x,x,0.7466435000096681,True,14
2A-MR1711K24,48,experiment,12,x,x,x,0.6264612000086345,True,14
2A-MR1711K24,49,experiment,13,z,x,x,0.8008955999976024,False,14
2A-MR1711K24,50,training,12,m,m,m,0.9286829000047874,True,15
2A-MR1711K24,51,training,15,x,x,x,0.8488090000028023,True,15
2A-MR1711K24,52,experiment,14,z,x,x,0.7893039999908069,False,15
2A-MR1711K24,53,experiment,15,m,m,m,0.5606823999987682,True,15
2A-MR1711K24,54,experiment,12,m,m,m,0.4766860999952769,True,15
2A-MR1711K24,55,experiment,13,n,n,n,0.7589299999963259,True,15
2A-MR1711K24,56,training,15,m,m,m,0.5991506000136724,True,15
2A-MR1711K24,57,training,13,n,n,n,0.4184328999981517,True,15
2A-MR1711K24,58,experiment,15,z,z,z,0.9336597000074107,True,15
2A-MR1711K24,59,experiment,13,x,x,x,0.7543574000010267,True,15
2A-MR1711K24,60,experiment,12,m,m,m,0.6275873999984469,True,15
2A-MR1711K24,61,experiment,14,x,x,x,0.6769028999988222,True,15
2A-MR1711K24,62,training,15,m,m,m,0.6970406000036746,True,14
2A-MR1711K24,63,training,13,n,n,n,0.7144166000070982,True,14
2A-MR1711K24,64,experiment,14,n,n,n,0.4746638999931747,True,14
2A-MR1711K24,65,experiment,12,z,z,z,1.11997899999551,True,14
2A-MR1711K24,66,experiment,15,m,m,m,0.6099782999954186,True,14
2A-MR1711K24,67,experiment,13,m,m,m,0.4717641999886837,True,14
2A-MR1711K24,68,training,13,z,z,z,0.6314191999990726,True,13
2A-MR1711K24,69,training,12,x,x,x,1.0775691000017105,True,13
2A-MR1711K24,70,experiment,13,x,x,x,1.04602259999956,True,13
2A-MR1711K24,71,experiment,14,n,x,x,0.78638669999782,False,13
2A-MR1711K24,72,experiment,15,m,m,m,0.6103966999944532,True,13
2A-MR1711K24,73,experiment,12,z,n,n,0.83059100000537,False,13
2A-MR1711K24,74,training,15,z,m,m,0.9763775000028545,False,14
2A-MR1711K24,75,training,14,m,n,n,1.0763369999913266,False,14
2A-MR1711K24,76,experiment,13,n,n,n,0.5589151999884052,True,14
2A-MR1711K24,77,experiment,12,n,n,n,0.849597000007634,True,14
2A-MR1711K24,78,experiment,14,m,m,m,0.6283381000102963,True,14
2A-MR1711K24,79,experiment,15,z,z,z,1.0517034999938915,True,14
2A-MR1711K24,80,training,15,x,x,x,0.6905022999999346,True,13
2A-MR1711K24,81,training,15,z,n,n,0.8064306999876862,False,13
2A-MR1711K24,82,experiment,14,n,n,n,0.44974209999782033,True,13
2A-MR1711K24,83,experiment,12,n,n,n,0.6257202999986475,True,13
2A-MR1711K24,84,experiment,13,m,z,z,0.8827758000115864,False,13
2A-MR1711K24,85,experiment,15,m,m,m,0.6845594000042183,True,13
2A-MR1711K24,86,training,15,n,z,z,0.824118799995631,False,13
2A-MR1711K24,87,training,12,x,n,n,1.4128403999930015,False,13
2A-MR1711K24,88,experiment,12,m,n,n,0.8814803999994183,False,13
2A-MR1711K24,89,experiment,13,z,z,z,0.5918978000117932,True,13
2A-MR1711K24,90,experiment,15,z,z,z,0.8644959000084782,True,13
2A-MR1711K24,91,experiment,14,z,x,x,0.9787461000087205,False,13
