PART_ID,Trial_no,Trial_type,CSI,Stim_letter,Key_pressed,letter_choose,Rt,Corr,Stimulus Time
2A-MR0304M26,1,training,12,m,m,m,0.633886200026609,True,30
2A-MR0304M26,2,training,12,m,m,m,0.5506450000102632,True,30
2A-MR0304M26,3,training,12,n,n,n,0.6900384000036865,True,30
2A-MR0304M26,4,training,12,m,m,m,0.8750478000147268,True,30
2A-MR0304M26,5,training,12,n,n,n,0.5504090999893378,True,30
2A-MR0304M26,6,training,12,x,x,x,0.8653409999969881,True,30
2A-MR0304M26,7,training,12,m,m,m,0.633732600021176,True,30
2A-MR0304M26,8,training,12,x,n,n,0.6991953999968246,False,30
2A-MR0304M26,9,training,12,n,n,n,0.7175815000082366,True,30
2A-MR0304M26,10,training,12,n,n,n,0.6179194000142161,True,30
2A-MR0304M26,11,training,12,n,n,n,0.6173424999869894,True,30
2A-MR0304M26,12,training,12,x,x,x,0.7228820000018459,True,30
2A-MR0304M26,13,training,12,n,n,n,0.8246142999851145,True,30
2A-MR0304M26,14,training,12,n,n,n,0.6004302999936044,True,30
2A-MR0304M26,15,training,12,z,z,z,0.6899242000072263,True,30
2A-MR0304M26,16,training,12,z,z,z,0.7219443999929354,True,18
2A-MR0304M26,17,training,12,m,m,m,0.6461184000072535,True,18
2A-MR0304M26,18,training,12,x,z,z,0.6840023999975529,False,18
2A-MR0304M26,19,training,12,z,z,z,0.6932980999990832,True,18
2A-MR0304M26,20,training,12,m,m,m,0.7352268000249751,True,18
2A-MR0304M26,21,training,12,m,m,m,0.7522533999872394,True,18
2A-MR0304M26,22,training,12,z,z,z,0.7784587999922223,True,18
2A-MR0304M26,23,training,12,n,n,n,0.7331731999875046,True,18
2A-MR0304M26,24,training,12,z,z,z,0.7984489000227768,True,18
2A-MR0304M26,25,training,12,x,x,x,0.7389651999983471,True,18
2A-MR0304M26,26,training,12,n,n,n,0.8764144000015222,True,15
2A-MR0304M26,27,training,14,m,m,m,0.6869517999875825,True,15
2A-MR0304M26,28,experiment,13,x,x,x,0.7917354000092018,True,15
2A-MR0304M26,29,experiment,14,n,n,n,1.1448976999963634,True,15
2A-MR0304M26,30,experiment,12,z,z,z,0.8562647000071593,True,15
2A-MR0304M26,31,experiment,15,x,n,n,0.9857817000010982,False,15
2A-MR0304M26,32,training,12,x,z,z,1.0794645000132732,False,15
2A-MR0304M26,33,training,15,n,n,n,0.7184847999888007,True,15
2A-MR0304M26,34,experiment,13,n,n,n,1.0793397999950685,True,15
2A-MR0304M26,35,experiment,15,n,n,n,0.6677846000238787,True,15
2A-MR0304M26,36,experiment,14,x,z,z,1.0807677999837324,False,15
2A-MR0304M26,37,experiment,12,x,x,x,1.6972225999925286,True,15
2A-MR0304M26,38,training,14,n,x,x,0.8875901999999769,False,15
2A-MR0304M26,39,training,12,n,n,n,0.843381100014085,True,15
2A-MR0304M26,40,experiment,15,m,m,m,0.6869331999914721,True,15
2A-MR0304M26,41,experiment,12,z,z,z,0.7371267999988049,True,15
2A-MR0304M26,42,experiment,14,n,n,n,0.808194299985189,True,15
2A-MR0304M26,43,experiment,13,n,n,n,0.5904245999990962,True,15
2A-MR0304M26,44,training,14,m,m,m,0.801065000006929,True,14
2A-MR0304M26,45,training,14,z,z,z,0.9078030999808107,True,14
2A-MR0304M26,46,experiment,15,n,n,n,0.7988937000045553,True,14
2A-MR0304M26,47,experiment,12,x,x,x,0.7774743000045419,True,14
2A-MR0304M26,48,experiment,14,n,z,z,1.1656825999962166,False,14
2A-MR0304M26,49,experiment,13,n,n,n,0.7453706999949645,True,14
2A-MR0304M26,50,training,13,z,n,n,0.4916121000132989,False,14
2A-MR0304M26,51,training,14,z,z,z,0.7216333000105806,True,14
2A-MR0304M26,52,experiment,14,x,n,n,0.7859852999972645,False,14
2A-MR0304M26,53,experiment,12,n,n,n,1.4822138999879826,True,14
2A-MR0304M26,54,experiment,13,x,z,z,0.8983966000087094,False,14
2A-MR0304M26,55,experiment,15,n,n,n,0.8771066999761388,True,14
2A-MR0304M26,56,training,14,x,z,z,1.6154238999879453,False,15
2A-MR0304M26,57,training,13,n,no_key,no_letter,-1.0,False,15
2A-MR0304M26,58,experiment,15,n,n,n,0.69880519999424,True,15
2A-MR0304M26,59,experiment,13,x,x,x,0.8811524000193458,True,15
2A-MR0304M26,60,experiment,14,n,n,n,0.9854138000227977,True,15
2A-MR0304M26,61,experiment,12,m,m,m,0.7667901999957394,True,15
2A-MR0304M26,62,training,14,x,x,x,1.0555565000104252,True,14
2A-MR0304M26,63,training,15,z,z,z,1.02291649999097,True,14
2A-MR0304M26,64,experiment,13,z,z,z,0.7271247000026051,True,14
2A-MR0304M26,65,experiment,14,n,n,n,0.863320600008592,True,14
2A-MR0304M26,66,experiment,15,m,m,m,0.637971899996046,True,14
2A-MR0304M26,67,experiment,12,x,z,z,0.8570704000012483,False,14
2A-MR0304M26,68,training,12,x,x,x,1.7658602999872528,True,14
2A-MR0304M26,69,training,14,z,z,z,0.7553244000009727,True,14
2A-MR0304M26,70,experiment,14,m,m,m,0.6740520000166725,True,14
2A-MR0304M26,71,experiment,12,n,n,n,0.8469954999745823,True,14
2A-MR0304M26,72,experiment,13,m,m,m,1.158728999987943,True,14
2A-MR0304M26,73,experiment,15,n,m,m,1.0650744999875315,False,14
2A-MR0304M26,74,training,14,z,no_key,no_letter,-1.0,False,14
2A-MR0304M26,75,training,13,x,x,x,1.06424100001459,True,14
2A-MR0304M26,76,experiment,13,z,z,z,0.8208837999845855,True,14
2A-MR0304M26,77,experiment,12,x,n,n,0.9919949999894015,False,14
2A-MR0304M26,78,experiment,15,m,m,m,0.6296927999937907,True,14
2A-MR0304M26,79,experiment,14,m,m,m,0.667530299979262,True,14
2A-MR0304M26,80,training,13,z,z,z,0.945737400004873,True,14
2A-MR0304M26,81,training,14,m,m,m,0.5688823999953456,True,14
2A-MR0304M26,82,experiment,14,z,x,x,0.9872889000107534,False,14
2A-MR0304M26,83,experiment,15,m,m,m,0.6753399000153877,True,14
2A-MR0304M26,84,experiment,12,n,m,m,0.9249894999957178,False,14
2A-MR0304M26,85,experiment,13,m,m,m,0.5354487000149675,True,14
2A-MR0304M26,86,training,15,x,x,x,1.1497759999765549,True,15
2A-MR0304M26,87,training,12,n,z,z,0.8879779000126291,False,15
2A-MR0304M26,88,experiment,12,m,m,m,0.5414881999895442,True,15
2A-MR0304M26,89,experiment,15,z,z,z,0.8714363999897614,True,15
2A-MR0304M26,90,experiment,13,z,m,m,0.6703004999726545,False,15
2A-MR0304M26,91,experiment,14,m,m,m,0.551705200021388,True,15
