PART_ID,Trial_no,Trial_type,CSI,Stim_letter,Key_pressed,letter_choose,Rt,Corr,Stimulus Time
2A-MS0905K32,1,training,12,x,x,x,1.2802993999998762,True,30
2A-MS0905K32,2,training,12,z,z,z,0.9324553000001288,True,30
2A-MS0905K32,3,training,12,z,z,z,0.9100092000003315,True,30
2A-MS0905K32,4,training,12,m,m,m,0.8660411999999269,True,30
2A-MS0905K32,5,training,12,z,z,z,1.1825739000000794,True,30
2A-MS0905K32,6,training,12,z,z,z,0.7474756000001435,True,30
2A-MS0905K32,7,training,12,x,z,z,0.7933993999999984,False,30
2A-MS0905K32,8,training,12,n,n,n,0.8158155000000988,True,30
2A-MS0905K32,9,training,12,x,x,x,1.0737604000000829,True,30
2A-MS0905K32,10,training,12,x,x,x,0.853722000000289,True,30
2A-MS0905K32,11,training,12,x,x,x,0.7463971000001948,True,30
2A-MS0905K32,12,training,12,m,m,m,0.9347390000002633,True,30
2A-MS0905K32,13,training,12,m,m,m,0.53382959999999,True,30
2A-MS0905K32,14,training,12,n,n,n,0.8126161000000138,True,30
2A-MS0905K32,15,training,12,m,m,m,0.7550194999998894,True,30
2A-MS0905K32,16,training,12,x,x,x,0.9572748000000502,True,18
2A-MS0905K32,17,training,12,m,m,m,0.9218230999999832,True,18
2A-MS0905K32,18,training,12,n,n,n,0.9186927000000651,True,18
2A-MS0905K32,19,training,12,n,n,n,0.8619542999999794,True,18
2A-MS0905K32,20,training,12,x,x,x,1.025028100000327,True,18
2A-MS0905K32,21,training,12,x,x,x,0.7673713000003772,True,18
2A-MS0905K32,22,training,12,x,x,x,0.6819611000000805,True,18
2A-MS0905K32,23,training,12,m,m,m,0.8129430999997567,True,18
2A-MS0905K32,24,training,12,x,x,x,1.2383945000001404,True,18
2A-MS0905K32,25,training,12,x,x,x,0.836333299999751,True,18
2A-MS0905K32,26,training,15,m,m,m,0.7016245999998318,True,15
2A-MS0905K32,27,training,15,n,x,x,0.9337722000000213,False,15
2A-MS0905K32,28,experiment,12,m,m,m,0.8969191999999566,True,15
2A-MS0905K32,29,experiment,13,z,z,z,0.9804638000000523,True,15
2A-MS0905K32,30,experiment,14,m,m,m,0.730023699999947,True,15
2A-MS0905K32,31,experiment,15,n,n,n,0.9212526999999682,True,15
2A-MS0905K32,32,training,15,n,n,n,0.7176854999997886,True,14
2A-MS0905K32,33,training,13,z,z,z,1.169955999999729,True,14
2A-MS0905K32,34,experiment,12,z,z,z,0.9673322000003282,True,14
2A-MS0905K32,35,experiment,13,n,n,n,0.7487476000001152,True,14
2A-MS0905K32,36,experiment,15,n,n,n,0.6660810000003039,True,14
2A-MS0905K32,37,experiment,14,x,x,x,0.7582373999998708,True,14
2A-MS0905K32,38,training,15,x,x,x,1.0745798999996623,True,13
2A-MS0905K32,39,training,14,z,z,z,1.0656527000001006,True,13
2A-MS0905K32,40,experiment,15,z,z,z,0.8878374999999323,True,13
2A-MS0905K32,41,experiment,13,m,m,m,0.8170532999997704,True,13
2A-MS0905K32,42,experiment,12,x,n,n,0.8104733000000124,False,13
2A-MS0905K32,43,experiment,14,z,x,x,1.0534950999999637,False,13
2A-MS0905K32,44,training,15,x,no_key,no_letter,-1.0,False,14
2A-MS0905K32,45,training,15,x,x,x,0.7081367000000682,True,14
2A-MS0905K32,46,experiment,14,m,m,m,0.6556479000000763,True,14
2A-MS0905K32,47,experiment,15,z,z,z,0.9667011000001366,True,14
2A-MS0905K32,48,experiment,12,z,z,z,1.1636524999998983,True,14
2A-MS0905K32,49,experiment,13,x,m,m,0.9135334000002331,False,14
2A-MS0905K32,50,training,12,x,x,x,1.0695567000002484,True,14
2A-MS0905K32,51,training,12,z,z,z,1.0137730000001284,True,14
2A-MS0905K32,52,experiment,12,z,z,z,0.963336000000254,True,14
2A-MS0905K32,53,experiment,14,z,x,x,1.6083996000002116,False,14
2A-MS0905K32,54,experiment,13,z,z,z,1.0587913999997909,True,14
2A-MS0905K32,55,experiment,15,m,m,m,0.8592631000001347,True,14
2A-MS0905K32,56,training,15,m,m,m,0.7794732000002114,True,14
2A-MS0905K32,57,training,15,n,n,n,0.9298069000001306,True,14
2A-MS0905K32,58,experiment,15,m,m,m,0.7493166999997811,True,14
2A-MS0905K32,59,experiment,12,x,x,x,1.1164502999999968,True,14
2A-MS0905K32,60,experiment,14,m,z,z,1.0216090999997505,False,14
2A-MS0905K32,61,experiment,13,z,m,m,0.8100032000002102,False,14
2A-MS0905K32,62,training,15,x,z,z,1.2278584999999111,False,15
2A-MS0905K32,63,training,12,n,m,m,0.8512506000001849,False,15
2A-MS0905K32,64,experiment,15,z,x,x,0.9429086999998617,False,15
2A-MS0905K32,65,experiment,14,z,m,m,1.1957016999999723,False,15
2A-MS0905K32,66,experiment,12,z,z,z,0.9205059000000801,True,15
2A-MS0905K32,67,experiment,13,z,z,z,0.9107472999999118,True,15
2A-MS0905K32,68,training,15,m,m,m,0.6760908999999629,True,16
2A-MS0905K32,69,training,13,n,m,m,0.7722352999999202,False,16
2A-MS0905K32,70,experiment,15,n,z,z,0.8332910999997694,False,16
2A-MS0905K32,71,experiment,12,m,z,z,0.8289494999999079,False,16
2A-MS0905K32,72,experiment,13,z,z,z,0.724563699999635,True,16
2A-MS0905K32,73,experiment,14,x,x,x,0.7309000000000196,True,16
2A-MS0905K32,74,training,12,z,z,z,1.0106611000001067,True,17
2A-MS0905K32,75,training,12,n,m,m,0.7687209000000621,False,17
2A-MS0905K32,76,experiment,13,m,m,m,1.365887400000247,True,17
2A-MS0905K32,77,experiment,15,m,m,m,0.9008033000000069,True,17
2A-MS0905K32,78,experiment,14,z,z,z,0.8334921000000577,True,17
2A-MS0905K32,79,experiment,12,x,x,x,0.7331728999997722,True,17
2A-MS0905K32,80,training,14,x,x,x,0.8697419000000082,True,16
2A-MS0905K32,81,training,14,n,m,m,1.0323911000000408,False,16
2A-MS0905K32,82,experiment,12,x,x,x,0.9291233000003558,True,16
2A-MS0905K32,83,experiment,14,n,m,m,0.8553931999999804,False,16
2A-MS0905K32,84,experiment,13,x,x,x,0.8771910000000389,True,16
2A-MS0905K32,85,experiment,15,z,z,z,0.7777814000000944,True,16
2A-MS0905K32,86,training,15,m,m,m,0.7129064999999173,True,16
2A-MS0905K32,87,training,15,n,n,n,0.9078700000000026,True,16
2A-MS0905K32,88,experiment,12,x,x,x,0.9369088000003103,True,16
2A-MS0905K32,89,experiment,13,m,m,m,0.7086441000001287,True,16
2A-MS0905K32,90,experiment,14,z,z,z,0.7452336999999716,True,16
2A-MS0905K32,91,experiment,15,m,m,m,0.7145918999999594,True,16
