PART_ID,Trial_no,Trial_type,CSI,Stim_letter,Key_pressed,letter_choose,Rt,Corr,Stimulus Time
2A-NK2003M23,1,training,12,n,n,n,1.253312599961646,True,30
2A-NK2003M23,2,training,12,z,z,z,1.4672712000319734,True,30
2A-NK2003M23,3,training,12,m,m,m,0.8120315000414848,True,30
2A-NK2003M23,4,training,12,z,z,z,0.8951862000394613,True,30
2A-NK2003M23,5,training,12,m,m,m,0.845397699973546,True,30
2A-NK2003M23,6,training,12,n,n,n,0.8845395999960601,True,30
2A-NK2003M23,7,training,12,z,z,z,0.9892343999817967,True,30
2A-NK2003M23,8,training,12,m,m,m,0.8173454999923706,True,30
2A-NK2003M23,9,training,12,x,x,x,0.8993232999928296,True,30
2A-NK2003M23,10,training,12,x,x,x,0.7256526999408379,True,30
2A-NK2003M23,11,training,12,n,n,n,0.7036035000346601,True,30
2A-NK2003M23,12,training,12,z,z,z,0.6171705999877304,True,30
2A-NK2003M23,13,training,12,m,m,m,0.550482299993746,True,30
2A-NK2003M23,14,training,12,n,n,n,1.5555344000458717,True,30
2A-NK2003M23,15,training,12,z,z,z,0.6886044000275433,True,30
2A-NK2003M23,16,training,12,m,m,m,0.6508858000161126,True,18
2A-NK2003M23,17,training,12,z,z,z,0.5860288999974728,True,18
2A-NK2003M23,18,training,12,z,x,x,1.4238098999485373,False,18
2A-NK2003M23,19,training,12,x,x,x,0.67505209997762,True,18
2A-NK2003M23,20,training,12,z,z,z,0.6560132999438792,True,18
2A-NK2003M23,21,training,12,n,n,n,0.7400586000876501,True,18
2A-NK2003M23,22,training,12,z,z,z,0.6010172999231145,True,18
2A-NK2003M23,23,training,12,m,m,m,0.716744799981825,True,18
2A-NK2003M23,24,training,12,n,n,n,0.6228146000066772,True,18
2A-NK2003M23,25,training,12,z,z,z,0.9897484999382868,True,18
2A-NK2003M23,26,training,12,m,m,m,0.640204600058496,True,15
2A-NK2003M23,27,training,12,z,z,z,0.7963208999717608,True,15
2A-NK2003M23,28,experiment,15,z,z,z,0.6293564999941736,True,15
2A-NK2003M23,29,experiment,12,z,z,z,0.5344206000445411,True,15
2A-NK2003M23,30,experiment,14,n,z,z,1.6107373000122607,False,15
2A-NK2003M23,31,experiment,13,z,z,z,0.6229335999814793,True,15
2A-NK2003M23,32,training,14,m,m,m,1.1708850000286475,True,15
2A-NK2003M23,33,training,14,x,x,x,0.7872862999793142,True,15
2A-NK2003M23,34,experiment,12,z,z,z,0.6338969999924302,True,15
2A-NK2003M23,35,experiment,13,n,n,n,0.7092935999389738,True,15
2A-NK2003M23,36,experiment,14,n,n,n,0.6433142999885604,True,15
2A-NK2003M23,37,experiment,15,z,z,z,0.6183881000615656,True,15
2A-NK2003M23,38,training,15,n,n,n,0.7032580999657512,True,14
2A-NK2003M23,39,training,15,x,z,z,1.1454056999646127,False,14
2A-NK2003M23,40,experiment,12,x,x,x,0.7093353999080136,True,14
2A-NK2003M23,41,experiment,15,z,z,z,0.6748303000349551,True,14
2A-NK2003M23,42,experiment,13,n,n,n,0.6190153999486938,True,14
2A-NK2003M23,43,experiment,14,x,z,z,1.4547690999461338,False,14
2A-NK2003M23,44,training,15,m,z,z,1.1751019000075758,False,14
2A-NK2003M23,45,training,15,x,x,x,0.7579504000023007,True,14
2A-NK2003M23,46,experiment,14,m,m,m,0.6171458999160677,True,14
2A-NK2003M23,47,experiment,15,n,n,n,0.6628107998985797,True,14
2A-NK2003M23,48,experiment,12,z,z,z,0.6637981999665499,True,14
2A-NK2003M23,49,experiment,13,n,n,n,0.7648324000183493,True,14
2A-NK2003M23,50,training,12,x,z,z,0.8429895000299439,False,13
2A-NK2003M23,51,training,14,z,z,z,0.6328942999243736,True,13
2A-NK2003M23,52,experiment,14,m,m,m,0.665088800014928,True,13
2A-NK2003M23,53,experiment,13,z,z,z,0.7374682000372559,True,13
2A-NK2003M23,54,experiment,12,n,z,z,0.7604961999459192,False,13
2A-NK2003M23,55,experiment,15,z,z,z,0.5950637999922037,True,13
2A-NK2003M23,56,training,13,x,x,x,0.7391059000510722,True,13
2A-NK2003M23,57,training,13,m,n,n,1.1900764000602067,False,13
2A-NK2003M23,58,experiment,15,z,z,z,1.00677810003981,True,13
2A-NK2003M23,59,experiment,12,m,m,m,0.6791561000281945,True,13
2A-NK2003M23,60,experiment,14,m,m,m,0.6614672000287101,True,13
2A-NK2003M23,61,experiment,13,n,n,n,0.747237200033851,True,13
2A-NK2003M23,62,training,15,n,n,n,0.648991399910301,True,12
2A-NK2003M23,63,training,15,z,z,z,0.5251456999685615,True,12
2A-NK2003M23,64,experiment,12,x,n,n,1.660609900020063,False,12
2A-NK2003M23,65,experiment,13,n,n,n,1.482411599950865,True,12
2A-NK2003M23,66,experiment,15,z,z,z,0.8761522999266163,True,12
2A-NK2003M23,67,experiment,14,x,x,x,0.7760349999880418,True,12
2A-NK2003M23,68,training,14,n,z,z,1.448780299979262,False,12
2A-NK2003M23,69,training,12,n,n,n,0.6293011999223381,True,12
2A-NK2003M23,70,experiment,13,z,z,z,0.593718699994497,True,12
2A-NK2003M23,71,experiment,15,m,n,n,0.9916702999034896,False,12
2A-NK2003M23,72,experiment,12,x,no_key,no_letter,-1.0,False,12
2A-NK2003M23,73,experiment,14,x,z,z,1.4927717000246048,False,12
2A-NK2003M23,74,training,14,m,m,m,0.59097090002615,True,13
2A-NK2003M23,75,training,13,z,z,z,0.4790893999161199,True,13
2A-NK2003M23,76,experiment,13,m,m,m,0.7477649999782443,True,13
2A-NK2003M23,77,experiment,15,n,n,n,0.6630783999571577,True,13
2A-NK2003M23,78,experiment,14,x,z,z,0.571393399965018,False,13
2A-NK2003M23,79,experiment,12,m,m,m,0.8473103999858722,True,13
2A-NK2003M23,80,training,14,n,n,n,0.6773635999998078,True,13
2A-NK2003M23,81,training,14,m,m,m,0.508427600027062,True,13
2A-NK2003M23,82,experiment,15,x,x,x,0.7070014999480918,True,13
2A-NK2003M23,83,experiment,12,z,z,z,0.8025821000337601,True,13
2A-NK2003M23,84,experiment,13,x,z,z,1.4899253000039607,False,13
2A-NK2003M23,85,experiment,14,z,z,z,0.5851128000067547,True,13
2A-NK2003M23,86,training,12,m,m,m,0.6378433000063524,True,13
2A-NK2003M23,87,training,14,n,n,n,1.2642519999062642,True,13
2A-NK2003M23,88,experiment,15,z,n,n,1.6270981000270694,False,13
2A-NK2003M23,89,experiment,13,n,n,n,0.5483988000778481,True,13
2A-NK2003M23,90,experiment,14,x,n,n,1.447421899996698,False,13
2A-NK2003M23,91,experiment,12,m,m,m,0.6094644999830052,True,13
