PART_ID,Trial_no,Trial_type,CSI,Stim_letter,Key_pressed,letter_choose,Rt,Corr,Stimulus Time
2A-PR2711M34,1,training,12,z,no_key,no_letter,-1.0,False,30
2A-PR2711M34,2,training,12,m,m,m,1.2244579000398517,True,30
2A-PR2711M34,3,training,12,z,z,z,1.4357993999728933,True,30
2A-PR2711M34,4,training,12,m,m,m,1.2245010000187904,True,30
2A-PR2711M34,5,training,12,m,m,m,1.1403519000159577,True,30
2A-PR2711M34,6,training,12,n,n,n,0.872727100038901,True,30
2A-PR2711M34,7,training,12,x,x,x,1.6333038000157103,True,30
2A-PR2711M34,8,training,12,m,m,m,1.078544799995143,True,30
2A-PR2711M34,9,training,12,m,m,m,0.7901726000127383,True,30
2A-PR2711M34,10,training,12,m,m,m,0.7628995000268333,True,30
2A-PR2711M34,11,training,12,z,z,z,1.2441032999777235,True,30
2A-PR2711M34,12,training,12,z,z,z,1.3538458999828435,True,30
2A-PR2711M34,13,training,12,m,m,m,0.9975167000084184,True,30
2A-PR2711M34,14,training,12,z,z,z,2.0751074999570847,True,30
2A-PR2711M34,15,training,12,m,z,z,0.9644128999789245,False,30
2A-PR2711M34,16,training,12,n,z,z,1.4695215999963693,False,18
2A-PR2711M34,17,training,12,x,z,z,1.3243813999579288,False,18
2A-PR2711M34,18,training,12,z,z,z,1.0838896000059322,True,18
2A-PR2711M34,19,training,12,x,m,m,1.231837400002405,False,18
2A-PR2711M34,20,training,12,m,m,m,0.9080748000415042,True,18
2A-PR2711M34,21,training,12,x,z,z,1.8266173000447452,False,18
2A-PR2711M34,22,training,12,x,x,x,1.1368482999969274,True,18
2A-PR2711M34,23,training,12,m,no_key,no_letter,-1.0,False,18
2A-PR2711M34,24,training,12,m,m,m,0.921723400009796,True,18
2A-PR2711M34,25,training,12,z,z,z,1.060249800037127,True,18
2A-PR2711M34,26,training,13,n,m,m,0.9120607999502681,False,15
2A-PR2711M34,27,training,14,n,z,z,1.0005251999828033,False,15
2A-PR2711M34,28,experiment,12,m,m,m,0.8489561000023969,True,15
2A-PR2711M34,29,experiment,13,z,z,z,0.9647874000365846,True,15
2A-PR2711M34,30,experiment,15,m,m,m,0.8509173999773338,True,15
2A-PR2711M34,31,experiment,14,m,m,m,0.8310046999831684,True,15
2A-PR2711M34,32,training,13,n,m,m,1.2173552000313066,False,14
2A-PR2711M34,33,training,12,x,m,m,0.9825225000386126,False,14
2A-PR2711M34,34,experiment,15,m,m,m,0.858605399960652,True,14
2A-PR2711M34,35,experiment,12,z,z,z,0.8999400999746285,True,14
2A-PR2711M34,36,experiment,13,x,z,z,0.8035715000005439,False,14
2A-PR2711M34,37,experiment,14,x,n,n,1.0578759999480098,False,14
2A-PR2711M34,38,training,15,m,n,n,1.123117999988608,False,15
2A-PR2711M34,39,training,13,n,n,n,1.0802036999957636,True,15
2A-PR2711M34,40,experiment,15,n,n,n,0.8591325000161305,True,15
2A-PR2711M34,41,experiment,13,m,m,m,0.9302142999949865,True,15
2A-PR2711M34,42,experiment,14,z,z,z,1.0538804999669082,True,15
2A-PR2711M34,43,experiment,12,m,m,m,0.8863885999890044,True,15
2A-PR2711M34,44,training,14,z,z,z,0.9950547000044025,True,14
2A-PR2711M34,45,training,12,m,m,m,0.9521927000023425,True,14
2A-PR2711M34,46,experiment,12,n,n,n,0.81358120002551,True,14
2A-PR2711M34,47,experiment,15,x,z,z,1.0142112000030465,False,14
2A-PR2711M34,48,experiment,14,m,m,m,0.760957199963741,True,14
2A-PR2711M34,49,experiment,13,x,x,x,1.3154845999670215,True,14
2A-PR2711M34,50,training,14,n,n,n,0.8612691999878734,True,14
2A-PR2711M34,51,training,14,m,m,m,0.6323766999994405,True,14
2A-PR2711M34,52,experiment,13,x,x,x,1.9003689999808557,True,14
2A-PR2711M34,53,experiment,12,n,n,n,0.8682167999795638,True,14
2A-PR2711M34,54,experiment,14,m,m,m,0.6783837999682873,True,14
2A-PR2711M34,55,experiment,15,x,n,n,0.848977499990724,False,14
2A-PR2711M34,56,training,15,n,n,n,0.6795385999721475,True,14
2A-PR2711M34,57,training,14,z,z,z,0.7305050999857485,True,14
2A-PR2711M34,58,experiment,15,x,x,x,0.7357445000088774,True,14
2A-PR2711M34,59,experiment,14,z,n,n,1.1050686999806203,False,14
2A-PR2711M34,60,experiment,12,z,z,z,0.7541647999896668,True,14
2A-PR2711M34,61,experiment,13,m,m,m,0.7671720000216737,True,14
2A-PR2711M34,62,training,15,x,x,x,0.9023944999789819,True,14
2A-PR2711M34,63,training,14,n,n,n,0.8740831000031903,True,14
2A-PR2711M34,64,experiment,13,n,n,n,0.8237580999848433,True,14
2A-PR2711M34,65,experiment,15,m,n,n,0.8171686999849044,False,14
2A-PR2711M34,66,experiment,12,z,z,z,0.8668390000239015,True,14
2A-PR2711M34,67,experiment,14,x,m,m,0.7971241000341251,False,14
2A-PR2711M34,68,training,13,m,m,m,0.7424391999957152,True,15
2A-PR2711M34,69,training,15,x,n,n,0.8032138999551535,False,15
2A-PR2711M34,70,experiment,13,x,x,x,0.7004671000177041,True,15
2A-PR2711M34,71,experiment,12,x,n,n,0.8250215000007302,False,15
2A-PR2711M34,72,experiment,15,z,z,z,0.8892956000054255,True,15
2A-PR2711M34,73,experiment,14,z,m,m,0.7894500999827869,False,15
2A-PR2711M34,74,training,13,n,n,n,0.7589813999948092,True,16
2A-PR2711M34,75,training,14,n,n,n,0.8263735000509769,True,16
2A-PR2711M34,76,experiment,15,n,n,n,0.8427781000500545,True,16
2A-PR2711M34,77,experiment,14,n,n,n,0.6393979999702424,True,16
2A-PR2711M34,78,experiment,12,m,m,m,0.8802169999689795,True,16
2A-PR2711M34,79,experiment,13,m,m,m,0.7736005999613553,True,16
2A-PR2711M34,80,training,14,n,n,n,0.7380638000322506,True,15
2A-PR2711M34,81,training,13,x,x,x,0.7474491000175476,True,15
2A-PR2711M34,82,experiment,13,z,z,z,0.7350041000172496,True,15
2A-PR2711M34,83,experiment,15,z,z,z,0.6319062000256963,True,15
2A-PR2711M34,84,experiment,12,x,x,x,0.6461752000031993,True,15
2A-PR2711M34,85,experiment,14,z,n,n,0.8110353000229225,False,15
2A-PR2711M34,86,training,12,x,x,x,0.7367475000210106,True,15
2A-PR2711M34,87,training,14,n,n,n,0.686543200048618,True,15
2A-PR2711M34,88,experiment,15,z,z,z,0.7475898999837227,True,15
2A-PR2711M34,89,experiment,13,m,m,m,0.7017964000115171,True,15
2A-PR2711M34,90,experiment,14,z,n,n,0.9232545000268146,False,15
2A-PR2711M34,91,experiment,12,z,n,n,0.9217019999632612,False,15
