PART_ID,Trial_no,Trial_type,CSI,Stim_letter,Key_pressed,letter_choose,Rt,Corr,Stimulus Time
2A-ZJ2201K23,1,training,12,n,no_key,no_letter,-1.0,False,30
2A-ZJ2201K23,2,training,12,m,n,n,2.056742100045085,False,30
2A-ZJ2201K23,3,training,12,m,m,m,0.7442383000161499,True,30
2A-ZJ2201K23,4,training,12,m,m,m,0.7901266999542713,True,30
2A-ZJ2201K23,5,training,12,m,m,m,0.5504109000321478,True,30
2A-ZJ2201K23,6,training,12,m,m,m,0.6170416999375448,True,30
2A-ZJ2201K23,7,training,12,x,x,x,0.802517700009048,True,30
2A-ZJ2201K23,8,training,12,x,x,x,0.6820717999944463,True,30
2A-ZJ2201K23,9,training,12,n,n,n,0.7562900999328122,True,30
2A-ZJ2201K23,10,training,12,z,no_key,no_letter,-1.0,False,30
2A-ZJ2201K23,11,training,12,x,x,x,0.7568769999779761,True,30
2A-ZJ2201K23,12,training,12,z,z,z,0.7285872999345884,True,30
2A-ZJ2201K23,13,training,12,z,z,z,0.8798621000023559,True,30
2A-ZJ2201K23,14,training,12,n,n,n,0.841194000095129,True,30
2A-ZJ2201K23,15,training,12,z,z,z,0.6173649999545887,True,30
2A-ZJ2201K23,16,training,12,x,x,x,0.9753578000236303,True,18
2A-ZJ2201K23,17,training,12,x,x,x,0.5221081000054255,True,18
2A-ZJ2201K23,18,training,12,x,x,x,0.5693882999476045,True,18
2A-ZJ2201K23,19,training,12,n,n,n,0.5699826999334618,True,18
2A-ZJ2201K23,20,training,12,z,x,x,0.523958700010553,False,18
2A-ZJ2201K23,21,training,12,x,x,x,0.5510312999831513,True,18
2A-ZJ2201K23,22,training,12,z,x,x,0.9700941999908537,False,18
2A-ZJ2201K23,23,training,12,z,x,x,0.7357969000004232,False,18
2A-ZJ2201K23,24,training,12,x,x,x,0.6084733000025153,True,18
2A-ZJ2201K23,25,training,12,n,n,n,0.9441191999940202,True,18
2A-ZJ2201K23,26,training,15,n,z,z,1.341807599994354,False,15
2A-ZJ2201K23,27,training,12,z,z,z,0.6971497000195086,True,15
2A-ZJ2201K23,28,experiment,15,z,z,z,0.5034145000390708,True,15
2A-ZJ2201K23,29,experiment,14,z,z,z,0.49565389996860176,True,15
2A-ZJ2201K23,30,experiment,12,z,z,z,0.4255624000215903,True,15
2A-ZJ2201K23,31,experiment,13,m,n,n,1.4670169000746682,False,15
2A-ZJ2201K23,32,training,14,n,n,n,0.6491572000086308,True,15
2A-ZJ2201K23,33,training,15,n,n,n,0.4904308000113815,True,15
2A-ZJ2201K23,34,experiment,13,m,m,m,0.6032280999934301,True,15
2A-ZJ2201K23,35,experiment,15,z,z,z,0.5614521000534296,True,15
2A-ZJ2201K23,36,experiment,14,z,z,z,0.7175124000059441,True,15
2A-ZJ2201K23,37,experiment,12,z,z,z,0.5257737999781966,True,15
2A-ZJ2201K23,38,training,13,z,z,z,0.6587173999287188,True,14
2A-ZJ2201K23,39,training,15,z,z,z,0.5049926000647247,True,14
2A-ZJ2201K23,40,experiment,14,x,n,n,1.149312499910593,False,14
2A-ZJ2201K23,41,experiment,15,m,z,z,0.7438697000034153,False,14
2A-ZJ2201K23,42,experiment,12,m,z,z,0.8998726999852806,False,14
2A-ZJ2201K23,43,experiment,13,z,z,z,0.5469223000109196,True,14
2A-ZJ2201K23,44,training,15,m,m,m,0.7566472999751568,True,15
2A-ZJ2201K23,45,training,14,x,x,x,0.5597097999416292,True,15
2A-ZJ2201K23,46,experiment,12,n,z,z,0.9571932000108063,False,15
2A-ZJ2201K23,47,experiment,15,m,m,m,0.5789914999622852,True,15
2A-ZJ2201K23,48,experiment,14,x,x,x,0.5241198999574408,True,15
2A-ZJ2201K23,49,experiment,13,z,z,z,0.9170783999143168,True,15
2A-ZJ2201K23,50,training,13,x,x,x,0.5929021999472752,True,15
2A-ZJ2201K23,51,training,15,z,z,z,1.0381012000143528,True,15
2A-ZJ2201K23,52,experiment,14,m,m,m,0.9099640001077205,True,15
2A-ZJ2201K23,53,experiment,15,m,m,m,0.5928011999931186,True,15
2A-ZJ2201K23,54,experiment,13,m,x,x,1.7567080999724567,False,15
2A-ZJ2201K23,55,experiment,12,z,x,x,1.1620229000691324,False,15
2A-ZJ2201K23,56,training,13,x,x,x,0.6786437999689952,True,16
2A-ZJ2201K23,57,training,14,n,n,n,0.5465999000007287,True,16
2A-ZJ2201K23,58,experiment,14,x,x,x,0.6540013001067564,True,16
2A-ZJ2201K23,59,experiment,13,x,x,x,0.6467491000657901,True,16
2A-ZJ2201K23,60,experiment,15,x,x,x,0.8962317999685183,True,16
2A-ZJ2201K23,61,experiment,12,x,x,x,0.7117473999969661,True,16
2A-ZJ2201K23,62,training,12,z,z,z,0.7194928999524564,True,15
2A-ZJ2201K23,63,training,13,z,x,x,0.5006869999924675,False,15
2A-ZJ2201K23,64,experiment,13,x,x,x,0.5615276000462472,True,15
2A-ZJ2201K23,65,experiment,12,m,m,m,0.48317010002210736,True,15
2A-ZJ2201K23,66,experiment,14,m,m,m,0.48879819991998374,True,15
2A-ZJ2201K23,67,experiment,15,m,m,m,0.46033790009096265,True,15
2A-ZJ2201K23,68,training,12,n,n,n,0.6572848000796512,True,14
2A-ZJ2201K23,69,training,15,z,z,z,0.583202900015749,True,14
2A-ZJ2201K23,70,experiment,14,m,m,m,0.8376231000293046,True,14
2A-ZJ2201K23,71,experiment,15,m,m,m,0.6370092000579461,True,14
2A-ZJ2201K23,72,experiment,12,m,m,m,0.6821233000373468,True,14
2A-ZJ2201K23,73,experiment,13,x,m,m,1.0086475000716746,False,14
2A-ZJ2201K23,74,training,12,x,x,x,0.5664066000608727,True,14
2A-ZJ2201K23,75,training,13,z,z,z,0.6860630000010133,True,14
2A-ZJ2201K23,76,experiment,14,n,n,n,0.6263926000101492,True,14
2A-ZJ2201K23,77,experiment,12,n,n,n,0.6324735000962391,True,14
2A-ZJ2201K23,78,experiment,15,m,m,m,0.6890635000308976,True,14
2A-ZJ2201K23,79,experiment,13,x,x,x,0.6514429000671953,True,14
2A-ZJ2201K23,80,training,13,z,n,n,0.8514026999473572,False,13
2A-ZJ2201K23,81,training,12,z,z,z,0.6828192999819294,True,13
2A-ZJ2201K23,82,experiment,15,m,m,m,0.6228366000577807,True,13
2A-ZJ2201K23,83,experiment,12,x,x,x,0.8238199000479653,True,13
2A-ZJ2201K23,84,experiment,14,z,z,z,0.6004923000000417,True,13
2A-ZJ2201K23,85,experiment,13,n,n,n,0.6676177999470383,True,13
2A-ZJ2201K23,86,training,13,x,n,n,0.8900717999786139,False,12
2A-ZJ2201K23,87,training,15,m,m,m,0.5705970000708476,True,12
2A-ZJ2201K23,88,experiment,14,n,n,n,0.5803976999595761,True,12
2A-ZJ2201K23,89,experiment,15,z,z,z,0.48770820000208914,True,12
2A-ZJ2201K23,90,experiment,12,z,z,z,0.6710768999764696,True,12
2A-ZJ2201K23,91,experiment,13,n,z,z,0.8398747000610456,False,12
