PART_ID,Trial_no,Trial_type,CSI,Stim_letter,Key_pressed,letter_choose,Rt,Corr,Stimulus Time
2B-AP0802K28,1,training,12,m,m,m,0.9008402000181377,True,30
2B-AP0802K28,2,training,12,m,m,m,0.9085392999695614,True,30
2B-AP0802K28,3,training,12,m,m,m,0.7282264999812469,True,30
2B-AP0802K28,4,training,12,m,m,m,0.7524114999687299,True,30
2B-AP0802K28,5,training,12,n,n,n,0.7143852999433875,True,30
2B-AP0802K28,6,training,12,x,x,x,0.6693414999172091,True,30
2B-AP0802K28,7,training,12,m,m,m,0.9810908999061212,True,30
2B-AP0802K28,8,training,12,x,x,x,1.3387345999944955,True,30
2B-AP0802K28,9,training,12,x,x,x,1.0066608999622986,True,30
2B-AP0802K28,10,training,12,x,x,x,0.7452339000301436,True,30
2B-AP0802K28,11,training,12,z,z,z,0.9889975999249145,True,30
2B-AP0802K28,12,training,12,n,n,n,0.9483847999945283,True,30
2B-AP0802K28,13,training,12,x,x,x,0.8538869000039995,True,30
2B-AP0802K28,14,training,12,z,z,z,1.0199941000901163,True,30
2B-AP0802K28,15,training,12,x,x,x,0.9008967999834567,True,30
2B-AP0802K28,16,training,12,m,m,m,1.867221700027585,True,18
2B-AP0802K28,17,training,12,z,z,z,0.5789275000570342,True,18
2B-AP0802K28,18,training,12,x,x,x,1.0189535999670625,True,18
2B-AP0802K28,19,training,12,m,m,m,0.7029205999569967,True,18
2B-AP0802K28,20,training,12,z,z,z,0.7326109999557957,True,18
2B-AP0802K28,21,training,12,x,x,x,0.9030172000639141,True,18
2B-AP0802K28,22,training,12,z,z,z,0.8174259000224993,True,18
2B-AP0802K28,23,training,12,z,z,z,0.7676618999103084,True,18
2B-AP0802K28,24,training,12,m,m,m,0.7197516999440268,True,18
2B-AP0802K28,25,training,12,x,n,n,1.6917049000039697,False,18
2B-AP0802K28,26,training,15,x,x,x,0.8443747999845073,True,15
2B-AP0802K28,27,training,15,n,n,n,1.4040280999615788,True,15
2B-AP0802K28,28,experiment,13,z,z,z,0.7129518000874668,True,15
2B-AP0802K28,29,experiment,12,m,m,m,0.6842925000237301,True,15
2B-AP0802K28,30,experiment,15,n,n,n,1.4334112000651658,True,15
2B-AP0802K28,31,experiment,14,n,n,n,0.5836405999725685,True,15
2B-AP0802K28,32,training,13,n,z,z,1.5020965000148863,False,14
2B-AP0802K28,33,training,13,z,n,n,1.1857692999765277,False,14
2B-AP0802K28,34,experiment,14,n,n,n,0.6932665000203997,True,14
2B-AP0802K28,35,experiment,15,x,z,z,1.1018599000526592,False,14
2B-AP0802K28,36,experiment,12,z,z,z,0.7429732999298722,True,14
2B-AP0802K28,37,experiment,13,n,z,z,1.7925353000173345,False,14
2B-AP0802K28,38,training,14,n,m,m,1.7653681999072433,False,15
2B-AP0802K28,39,training,14,n,n,n,0.92903970007319,True,15
2B-AP0802K28,40,experiment,15,m,m,m,0.6112905000336468,True,15
2B-AP0802K28,41,experiment,14,n,no_key,no_letter,-1.0,False,15
2B-AP0802K28,42,experiment,13,n,n,n,1.210683000041172,True,15
2B-AP0802K28,43,experiment,12,z,z,z,0.7225909000262618,True,15
2B-AP0802K28,44,training,15,n,n,n,1.4171779999742284,True,15
2B-AP0802K28,45,training,13,z,x,x,0.9319898999528959,False,15
2B-AP0802K28,46,experiment,12,m,x,x,1.0963186000008136,False,15
2B-AP0802K28,47,experiment,13,x,z,z,1.262308800010942,False,15
2B-AP0802K28,48,experiment,15,m,x,x,1.8420874000294134,False,15
2B-AP0802K28,49,experiment,14,z,n,n,1.4692505000857636,False,15
2B-AP0802K28,50,training,12,m,m,m,0.7621953000780195,True,16
2B-AP0802K28,51,training,14,n,n,n,1.1943071000277996,True,16
2B-AP0802K28,52,experiment,13,m,m,m,0.5869004999985918,True,16
2B-AP0802K28,53,experiment,12,n,no_key,no_letter,-1.0,False,16
2B-AP0802K28,54,experiment,15,m,m,m,0.5614597999956459,True,16
2B-AP0802K28,55,experiment,14,n,n,n,1.8203738000011072,True,16
2B-AP0802K28,56,training,12,x,n,n,1.0876684000249952,False,16
2B-AP0802K28,57,training,15,x,x,x,0.7871469999663532,True,16
2B-AP0802K28,58,experiment,14,z,z,z,0.5858804000308737,True,16
2B-AP0802K28,59,experiment,15,m,m,m,0.6709248999832198,True,16
2B-AP0802K28,60,experiment,13,z,n,n,0.7297936999239028,False,16
2B-AP0802K28,61,experiment,12,m,m,m,0.5025549998972565,True,16
2B-AP0802K28,62,training,12,x,z,z,1.0096447999821976,False,16
2B-AP0802K28,63,training,12,m,m,m,0.6625817000167444,True,16
2B-AP0802K28,64,experiment,15,z,n,n,0.6216381000122055,False,16
2B-AP0802K28,65,experiment,14,n,n,n,0.6600141000235453,True,16
2B-AP0802K28,66,experiment,12,z,x,x,0.8552993000485003,False,16
2B-AP0802K28,67,experiment,13,z,no_key,no_letter,-1.0,False,16
2B-AP0802K28,68,training,15,n,m,m,0.7103372000856325,False,17
2B-AP0802K28,69,training,13,m,n,n,0.5547777999890968,False,17
2B-AP0802K28,70,experiment,12,x,z,z,0.5558230999158695,False,17
2B-AP0802K28,71,experiment,14,m,m,m,0.7375097000040114,True,17
2B-AP0802K28,72,experiment,13,z,n,n,0.6295499999541789,False,17
2B-AP0802K28,73,experiment,15,n,n,n,0.5569863000418991,True,17
2B-AP0802K28,74,training,15,m,m,m,0.5601235999492928,True,18
2B-AP0802K28,75,training,12,z,n,n,0.8776198000414297,False,18
2B-AP0802K28,76,experiment,14,m,m,m,0.6127140000462532,True,18
2B-AP0802K28,77,experiment,15,x,z,z,0.7480663000606,False,18
2B-AP0802K28,78,experiment,12,m,m,m,0.7255633999593556,True,18
2B-AP0802K28,79,experiment,13,m,n,n,0.7408002000302076,False,18
2B-AP0802K28,80,training,13,n,x,x,1.1001591000240296,False,18
2B-AP0802K28,81,training,15,m,m,m,0.5561874000122771,True,18
2B-AP0802K28,82,experiment,12,x,x,x,0.7900111000053585,True,18
2B-AP0802K28,83,experiment,13,n,n,n,1.1962618000106886,True,18
2B-AP0802K28,84,experiment,15,x,n,n,0.8510387000860646,False,18
2B-AP0802K28,85,experiment,14,m,m,m,0.5265509999589995,True,18
2B-AP0802K28,86,training,13,z,n,n,0.8327650000574067,False,18
2B-AP0802K28,87,training,14,n,n,n,0.5876857000403106,True,18
2B-AP0802K28,88,experiment,13,x,m,m,0.833318299963139,False,18
2B-AP0802K28,89,experiment,15,z,n,n,0.8354097999399528,False,18
2B-AP0802K28,90,experiment,14,n,n,n,0.5180174999404699,True,18
2B-AP0802K28,91,experiment,12,x,x,x,0.9299789000069723,True,18
