PART_ID,Trial_no,Trial_type,CSI,Stim_letter,Key_pressed,letter_choose,Rt,Corr,Stimulus Time
2B-AA1012M23,1,training,12,x,x,x,1.451811999999336,True,30
2B-AA1012M23,2,training,12,m,m,m,1.4569104999973206,True,30
2B-AA1012M23,3,training,12,m,m,m,0.9332272999999986,True,30
2B-AA1012M23,4,training,12,m,m,m,0.8161702999968838,True,30
2B-AA1012M23,5,training,12,n,n,n,0.8479468999976234,True,30
2B-AA1012M23,6,training,12,m,m,m,0.8215679999993881,True,30
2B-AA1012M23,7,training,12,m,m,m,0.8360399999983201,True,30
2B-AA1012M23,8,training,12,z,z,z,1.0379546999974991,True,30
2B-AA1012M23,9,training,12,x,x,x,0.8581899999990128,True,30
2B-AA1012M23,10,training,12,m,m,m,0.8497398999970756,True,30
2B-AA1012M23,11,training,12,x,x,x,0.7862409000008483,True,30
2B-AA1012M23,12,training,12,n,n,n,0.8647447000003012,True,30
2B-AA1012M23,13,training,12,n,n,n,0.7553413000023284,True,30
2B-AA1012M23,14,training,12,n,n,n,0.7196455000012065,True,30
2B-AA1012M23,15,training,12,m,m,m,0.9132620000018505,True,30
2B-AA1012M23,16,training,12,z,z,z,1.166413899998588,True,18
2B-AA1012M23,17,training,12,n,x,x,1.4169722000006004,False,18
2B-AA1012M23,18,training,12,m,m,m,0.7962853999997606,True,18
2B-AA1012M23,19,training,12,z,z,z,0.9362048000002687,True,18
2B-AA1012M23,20,training,12,x,x,x,1.478660700002365,True,18
2B-AA1012M23,21,training,12,x,x,x,0.8581845000007888,True,18
2B-AA1012M23,22,training,12,m,m,m,0.8189266000008502,True,18
2B-AA1012M23,23,training,12,n,n,n,0.7282331999995222,True,18
2B-AA1012M23,24,training,12,n,n,n,0.611891900000046,True,18
2B-AA1012M23,25,training,12,x,n,n,0.7454413999985263,False,18
2B-AA1012M23,26,training,15,z,z,z,1.0714110000008077,True,15
2B-AA1012M23,27,training,13,x,x,x,0.9249052999984997,True,15
2B-AA1012M23,28,experiment,15,x,z,z,1.7408849999992526,False,15
2B-AA1012M23,29,experiment,13,n,z,z,1.478498500000569,False,15
2B-AA1012M23,30,experiment,12,z,z,z,1.568962499997724,True,15
2B-AA1012M23,31,experiment,14,m,m,m,0.8596140000008745,True,15
2B-AA1012M23,32,training,15,n,n,n,0.6142280000021856,True,16
2B-AA1012M23,33,training,15,m,m,m,0.5920306999978493,True,16
2B-AA1012M23,34,experiment,15,x,n,n,1.2541066000012506,False,16
2B-AA1012M23,35,experiment,13,m,m,m,0.6771017999999458,True,16
2B-AA1012M23,36,experiment,14,n,n,n,0.7236976999993203,True,16
2B-AA1012M23,37,experiment,12,x,x,x,0.7550268999984837,True,16
2B-AA1012M23,38,training,14,z,z,z,1.179262200002995,True,16
2B-AA1012M23,39,training,12,z,z,z,0.82447559999855,True,16
2B-AA1012M23,40,experiment,12,z,z,z,0.7135923999994702,True,16
2B-AA1012M23,41,experiment,15,n,n,n,0.7282085999977426,True,16
2B-AA1012M23,42,experiment,13,m,m,m,0.7361992999976792,True,16
2B-AA1012M23,43,experiment,14,z,z,z,0.8600329000000784,True,16
2B-AA1012M23,44,training,14,z,x,x,1.3889520000011544,False,15
2B-AA1012M23,45,training,14,z,z,z,0.7572820000023057,True,15
2B-AA1012M23,46,experiment,15,n,n,n,0.6930326000001514,True,15
2B-AA1012M23,47,experiment,14,x,x,x,0.9078014000006078,True,15
2B-AA1012M23,48,experiment,13,m,m,m,1.129645699998946,True,15
2B-AA1012M23,49,experiment,12,m,m,m,0.9644188999991457,True,15
2B-AA1012M23,50,training,14,n,z,z,1.4911066000022402,False,14
2B-AA1012M23,51,training,15,m,m,m,0.6841500000009546,True,14
2B-AA1012M23,52,experiment,15,m,m,m,0.5626058999987436,True,14
2B-AA1012M23,53,experiment,14,x,x,x,0.9187839999976859,True,14
2B-AA1012M23,54,experiment,12,m,n,n,0.9008245000004536,False,14
2B-AA1012M23,55,experiment,13,z,z,z,1.0382647000005818,True,14
2B-AA1012M23,56,training,12,z,x,x,0.9782740999980888,False,14
2B-AA1012M23,57,training,14,n,n,n,0.6217071999999462,True,14
2B-AA1012M23,58,experiment,13,x,x,x,0.7234542000005604,True,14
2B-AA1012M23,59,experiment,15,x,z,z,0.9022341999989294,False,14
2B-AA1012M23,60,experiment,12,z,z,z,0.8050005000004603,True,14
2B-AA1012M23,61,experiment,14,n,n,n,0.7333609999986948,True,14
2B-AA1012M23,62,training,14,x,x,x,0.720506599998771,True,14
2B-AA1012M23,63,training,15,z,n,n,1.1162107000018295,False,14
2B-AA1012M23,64,experiment,15,z,z,z,0.7925179000012577,True,14
2B-AA1012M23,65,experiment,14,m,m,m,0.9562445000010484,True,14
2B-AA1012M23,66,experiment,12,m,m,m,0.6696838000025309,True,14
2B-AA1012M23,67,experiment,13,x,x,x,0.7773741000019072,True,14
2B-AA1012M23,68,training,12,z,n,n,0.8012639000007766,False,13
2B-AA1012M23,69,training,14,m,m,m,0.5583970000006957,True,13
2B-AA1012M23,70,experiment,15,x,z,z,0.8942195000017819,False,13
2B-AA1012M23,71,experiment,13,m,x,x,0.9459573999993154,False,13
2B-AA1012M23,72,experiment,12,x,x,x,0.8413545000003069,True,13
2B-AA1012M23,73,experiment,14,z,z,z,0.7414597999995749,True,13
2B-AA1012M23,74,training,15,x,x,x,0.7306437000006554,True,14
2B-AA1012M23,75,training,14,z,z,z,0.833431400002155,True,14
2B-AA1012M23,76,experiment,13,n,n,n,0.8659668000000238,True,14
2B-AA1012M23,77,experiment,14,m,n,n,1.0702880999997433,False,14
2B-AA1012M23,78,experiment,12,n,n,n,1.3490992999977607,True,14
2B-AA1012M23,79,experiment,15,x,x,x,0.8077260999998543,True,14
2B-AA1012M23,80,training,13,z,z,z,0.9829824000007648,True,14
2B-AA1012M23,81,training,12,x,z,z,1.0233181000003242,False,14
2B-AA1012M23,82,experiment,14,n,x,x,0.8534733999986202,False,14
2B-AA1012M23,83,experiment,12,z,x,x,0.8481404000012844,False,14
2B-AA1012M23,84,experiment,13,x,x,x,0.6164772999982233,True,14
2B-AA1012M23,85,experiment,15,m,m,m,0.8617641999990155,True,14
2B-AA1012M23,86,training,13,m,m,m,0.7025434999995923,True,15
2B-AA1012M23,87,training,13,m,m,m,0.6205001000016637,True,15
2B-AA1012M23,88,experiment,15,n,n,n,0.6158273000000918,True,15
2B-AA1012M23,89,experiment,14,n,x,x,1.3414325000012468,False,15
2B-AA1012M23,90,experiment,13,m,m,m,0.6661104000013438,True,15
2B-AA1012M23,91,experiment,12,x,n,n,0.6918594999988272,False,15
