PART_ID,Trial_no,Trial_type,CSI,Stim_letter,Key_pressed,letter_choose,Rt,Corr,Stimulus Time
2B-AN2911K20,1,training,12,x,x,x,1.0456556999124587,True,30
2B-AN2911K20,2,training,12,x,x,x,1.0232710000127554,True,30
2B-AN2911K20,3,training,12,n,n,n,0.81401910004206,True,30
2B-AN2911K20,4,training,12,n,n,n,0.9643206999171525,True,30
2B-AN2911K20,5,training,12,m,m,m,0.9637962998822331,True,30
2B-AN2911K20,6,training,12,n,n,n,1.2425813998561352,True,30
2B-AN2911K20,7,training,12,x,x,x,1.0171425000298768,True,30
2B-AN2911K20,8,training,12,x,x,x,1.0087649999186397,True,30
2B-AN2911K20,9,training,12,n,n,n,1.2067996999248862,True,30
2B-AN2911K20,10,training,12,m,m,m,1.0324732000008225,True,30
2B-AN2911K20,11,training,12,z,z,z,0.9592927000485361,True,30
2B-AN2911K20,12,training,12,m,m,m,0.9570367999840528,True,30
2B-AN2911K20,13,training,12,z,z,z,0.9358445999678224,True,30
2B-AN2911K20,14,training,12,z,z,z,1.1022863001562655,True,30
2B-AN2911K20,15,training,12,z,z,z,0.9907688000239432,True,30
2B-AN2911K20,16,training,12,n,n,n,0.8288182001560926,True,18
2B-AN2911K20,17,training,12,n,x,x,1.7574088999535888,False,18
2B-AN2911K20,18,training,12,x,x,x,0.8593111000955105,True,18
2B-AN2911K20,19,training,12,z,z,z,0.9796690000221133,True,18
2B-AN2911K20,20,training,12,n,n,n,0.7692275000736117,True,18
2B-AN2911K20,21,training,12,z,z,z,0.7766479998826981,True,18
2B-AN2911K20,22,training,12,x,x,x,0.9796513998880982,True,18
2B-AN2911K20,23,training,12,n,n,n,0.7339679000433534,True,18
2B-AN2911K20,24,training,12,m,m,m,0.8494198000989854,True,18
2B-AN2911K20,25,training,12,x,z,z,1.3319988001603633,False,18
2B-AN2911K20,26,training,12,x,z,z,1.260168100008741,False,15
2B-AN2911K20,27,training,12,n,z,z,0.862459700088948,False,15
2B-AN2911K20,28,experiment,14,z,z,z,0.6892909999005497,True,15
2B-AN2911K20,29,experiment,13,n,n,n,0.6575108000542969,True,15
2B-AN2911K20,30,experiment,15,x,x,x,0.8624026998877525,True,15
2B-AN2911K20,31,experiment,12,x,x,x,0.8867866001091897,True,15
2B-AN2911K20,32,training,12,z,z,z,0.6760461002122611,True,14
2B-AN2911K20,33,training,15,x,x,x,0.7731715999543667,True,14
2B-AN2911K20,34,experiment,14,n,n,n,0.7837644000537694,True,14
2B-AN2911K20,35,experiment,13,x,x,x,0.7065268999431282,True,14
2B-AN2911K20,36,experiment,15,n,n,n,0.6393385000992566,True,14
2B-AN2911K20,37,experiment,12,x,z,z,1.1208011000417173,False,14
2B-AN2911K20,38,training,14,n,n,n,0.6744581998791546,True,14
2B-AN2911K20,39,training,15,x,x,x,0.9044836000539362,True,14
2B-AN2911K20,40,experiment,13,x,x,x,0.9044959000311792,True,14
2B-AN2911K20,41,experiment,14,z,z,z,0.7053990999702364,True,14
2B-AN2911K20,42,experiment,12,z,z,z,0.8388736001215875,True,14
2B-AN2911K20,43,experiment,15,m,m,m,0.9134096999187022,True,14
2B-AN2911K20,44,training,12,n,x,x,0.8601807998493314,False,13
2B-AN2911K20,45,training,15,n,n,n,0.7110305998940021,True,13
2B-AN2911K20,46,experiment,12,x,x,x,0.8483360998798162,True,13
2B-AN2911K20,47,experiment,14,x,x,x,0.9604098999407142,True,13
2B-AN2911K20,48,experiment,15,m,m,m,0.8969314000569284,True,13
2B-AN2911K20,49,experiment,13,m,n,n,0.8268981999717653,False,13
2B-AN2911K20,50,training,12,n,n,n,0.5898871999233961,True,13
2B-AN2911K20,51,training,13,z,z,z,0.7336832000873983,True,13
2B-AN2911K20,52,experiment,13,x,z,z,0.9368163000326604,False,13
2B-AN2911K20,53,experiment,12,m,x,x,0.7560034000780433,False,13
2B-AN2911K20,54,experiment,14,x,x,x,0.6399377998895943,True,13
2B-AN2911K20,55,experiment,15,n,n,n,0.7163014998659492,True,13
2B-AN2911K20,56,training,14,x,n,n,0.7421319000422955,False,14
2B-AN2911K20,57,training,14,z,z,z,0.6864165998995304,True,14
2B-AN2911K20,58,experiment,14,z,z,z,0.5645024999976158,True,14
2B-AN2911K20,59,experiment,15,z,z,z,0.6944992998614907,True,14
2B-AN2911K20,60,experiment,12,n,n,n,0.5920616001822054,True,14
2B-AN2911K20,61,experiment,13,m,n,n,0.7635647000279278,False,14
2B-AN2911K20,62,training,14,x,z,z,0.7713176000397652,False,14
2B-AN2911K20,63,training,12,z,z,z,0.6103356999810785,True,14
2B-AN2911K20,64,experiment,15,x,z,z,0.9238336000125855,False,14
2B-AN2911K20,65,experiment,14,m,m,m,1.0431727999821305,True,14
2B-AN2911K20,66,experiment,12,z,z,z,1.089676600182429,True,14
2B-AN2911K20,67,experiment,13,z,z,z,0.7837155000306666,True,14
2B-AN2911K20,68,training,12,z,z,z,0.6452037000562996,True,14
2B-AN2911K20,69,training,14,z,z,z,0.6900263999123126,True,14
2B-AN2911K20,70,experiment,15,n,m,m,1.334169799927622,False,14
2B-AN2911K20,71,experiment,14,z,z,z,0.8626920999959111,True,14
2B-AN2911K20,72,experiment,13,z,z,z,0.9274697001092136,True,14
2B-AN2911K20,73,experiment,12,z,z,z,0.5887957999948412,True,14
2B-AN2911K20,74,training,14,n,n,n,0.7544879000633955,True,14
2B-AN2911K20,75,training,12,m,z,z,0.9285716000013053,False,14
2B-AN2911K20,76,experiment,13,m,m,m,1.2384969000704587,True,14
2B-AN2911K20,77,experiment,12,x,n,n,0.8204753999598324,False,14
2B-AN2911K20,78,experiment,14,m,m,m,0.9739431999623775,True,14
2B-AN2911K20,79,experiment,15,m,z,z,0.9116885000839829,False,14
2B-AN2911K20,80,training,14,z,z,z,0.9584433999843895,True,15
2B-AN2911K20,81,training,14,m,m,m,0.852065300103277,True,15
2B-AN2911K20,82,experiment,12,n,n,n,0.7904947998467833,True,15
2B-AN2911K20,83,experiment,14,m,m,m,0.9543379000388086,True,15
2B-AN2911K20,84,experiment,13,m,m,m,0.863247700035572,True,15
2B-AN2911K20,85,experiment,15,m,m,m,0.7704392001032829,True,15
2B-AN2911K20,86,training,12,z,z,z,0.6353603999596089,True,14
2B-AN2911K20,87,training,13,z,z,z,0.6947704998310655,True,14
2B-AN2911K20,88,experiment,13,z,z,z,0.7199836000800133,True,14
2B-AN2911K20,89,experiment,12,n,n,n,0.7503726999275386,True,14
2B-AN2911K20,90,experiment,14,x,m,m,1.1323167001828551,False,14
2B-AN2911K20,91,experiment,15,n,n,n,0.7406584999989718,True,14
