PART_ID,Trial_no,Trial_type,CSI,Stim_letter,Key_pressed,letter_choose,Rt,Corr,Stimulus Time
2B-DS2507M25,1,training,12,n,z,z,1.5025867000222206,False,30
2B-DS2507M25,2,training,12,n,no_key,no_letter,-1.0,False,30
2B-DS2507M25,3,training,12,z,no_key,no_letter,-1.0,False,30
2B-DS2507M25,4,training,12,z,z,z,1.378625600016676,True,30
2B-DS2507M25,5,training,12,x,x,x,1.0882827999303117,True,30
2B-DS2507M25,6,training,12,x,no_key,no_letter,-1.0,False,30
2B-DS2507M25,7,training,12,m,m,m,1.2727853000396863,True,30
2B-DS2507M25,8,training,12,m,m,m,1.4747869999846444,True,30
2B-DS2507M25,9,training,12,m,m,m,1.4623206000542268,True,30
2B-DS2507M25,10,training,12,n,n,n,1.046656799968332,True,30
2B-DS2507M25,11,training,12,x,x,x,1.2261049000080675,True,30
2B-DS2507M25,12,training,12,n,n,n,1.199977400014177,True,30
2B-DS2507M25,13,training,12,n,n,n,1.0590023000258952,True,30
2B-DS2507M25,14,training,12,x,x,x,1.1166910000611097,True,30
2B-DS2507M25,15,training,12,x,x,x,1.0971770000178367,True,30
2B-DS2507M25,16,training,12,m,m,m,0.977259200066328,True,18
2B-DS2507M25,17,training,12,z,z,z,0.9816373999929056,True,18
2B-DS2507M25,18,training,12,x,x,x,0.8091672000009567,True,18
2B-DS2507M25,19,training,12,m,m,m,1.0296326000243425,True,18
2B-DS2507M25,20,training,12,x,x,x,1.1739425000268966,True,18
2B-DS2507M25,21,training,12,m,m,m,0.958287899964489,True,18
2B-DS2507M25,22,training,12,x,x,x,0.8845897999126464,True,18
2B-DS2507M25,23,training,12,n,x,x,0.9685693000210449,False,18
2B-DS2507M25,24,training,12,x,m,m,1.171338599990122,False,18
2B-DS2507M25,25,training,12,m,m,m,0.8529515999834985,True,18
2B-DS2507M25,26,training,14,m,m,m,0.8814475999679416,True,15
2B-DS2507M25,27,training,12,z,z,z,1.0302942000562325,True,15
2B-DS2507M25,28,experiment,15,x,no_key,no_letter,-1.0,False,15
2B-DS2507M25,29,experiment,12,z,no_key,no_letter,-1.0,False,15
2B-DS2507M25,30,experiment,14,m,m,m,0.6354892000090331,True,15
2B-DS2507M25,31,experiment,13,z,no_key,no_letter,-1.0,False,15
2B-DS2507M25,32,training,15,n,m,m,0.9901719000190496,False,16
2B-DS2507M25,33,training,15,x,n,n,1.140373200061731,False,16
2B-DS2507M25,34,experiment,13,n,n,n,1.4709939999738708,True,16
2B-DS2507M25,35,experiment,12,x,x,x,0.8598027999978513,True,16
2B-DS2507M25,36,experiment,15,m,no_key,no_letter,-1.0,False,16
2B-DS2507M25,37,experiment,14,x,x,x,0.7410142000298947,True,16
2B-DS2507M25,38,training,13,z,z,z,0.908004799974151,True,16
2B-DS2507M25,39,training,13,x,x,x,0.9064617999829352,True,16
2B-DS2507M25,40,experiment,14,m,m,m,0.918530400027521,True,16
2B-DS2507M25,41,experiment,12,x,n,n,1.1064412000123411,False,16
2B-DS2507M25,42,experiment,15,z,z,z,0.8315378000261262,True,16
2B-DS2507M25,43,experiment,13,m,m,m,1.33252719999291,True,16
2B-DS2507M25,44,training,15,m,m,m,0.7088152000214905,True,16
2B-DS2507M25,45,training,15,n,n,n,0.8195352999027818,True,16
2B-DS2507M25,46,experiment,14,n,n,n,0.795960700022988,True,16
2B-DS2507M25,47,experiment,15,m,x,x,1.2297306000255048,False,16
2B-DS2507M25,48,experiment,13,x,x,x,0.955111899995245,True,16
2B-DS2507M25,49,experiment,12,n,n,n,1.2103330000536516,True,16
2B-DS2507M25,50,training,12,n,n,n,0.6447834999999031,True,16
2B-DS2507M25,51,training,15,x,x,x,0.7879762999946252,True,16
2B-DS2507M25,52,experiment,13,m,m,m,0.9138236000435427,True,16
2B-DS2507M25,53,experiment,14,n,n,n,0.9091423000209033,True,16
2B-DS2507M25,54,experiment,15,z,z,z,0.9114065999165177,True,16
2B-DS2507M25,55,experiment,12,m,m,m,0.8983844999456778,True,16
2B-DS2507M25,56,training,14,n,n,n,0.8461590999504551,True,15
2B-DS2507M25,57,training,14,m,n,n,0.9130482999607921,False,15
2B-DS2507M25,58,experiment,13,x,no_key,no_letter,-1.0,False,15
2B-DS2507M25,59,experiment,14,z,n,n,1.0862240999704227,False,15
2B-DS2507M25,60,experiment,12,z,z,z,0.7732730000279844,True,15
2B-DS2507M25,61,experiment,15,z,n,n,1.670360599993728,False,15
2B-DS2507M25,62,training,13,x,z,z,0.9799344999482855,False,16
2B-DS2507M25,63,training,15,n,n,n,0.696206699940376,True,16
2B-DS2507M25,64,experiment,13,x,z,z,0.8477751000318676,False,16
2B-DS2507M25,65,experiment,15,m,m,m,0.8524127999553457,True,16
2B-DS2507M25,66,experiment,12,z,z,z,0.7114311000332236,True,16
2B-DS2507M25,67,experiment,14,n,n,n,0.7265985000412911,True,16
2B-DS2507M25,68,training,13,z,z,z,0.7104807000141591,True,16
2B-DS2507M25,69,training,14,z,z,z,0.7281712000258267,True,16
2B-DS2507M25,70,experiment,14,x,x,x,0.7199160000309348,True,16
2B-DS2507M25,71,experiment,15,n,no_key,no_letter,-1.0,False,16
2B-DS2507M25,72,experiment,12,x,z,z,0.9179173000156879,False,16
2B-DS2507M25,73,experiment,13,z,z,z,0.6838516999268904,True,16
2B-DS2507M25,74,training,15,n,n,n,0.8126754000550136,True,17
2B-DS2507M25,75,training,13,m,m,m,0.8091422999277711,True,17
2B-DS2507M25,76,experiment,14,z,z,z,0.7143198000267148,True,17
2B-DS2507M25,77,experiment,13,z,z,z,0.7399940999457613,True,17
2B-DS2507M25,78,experiment,12,x,z,z,0.5168528000358492,False,17
2B-DS2507M25,79,experiment,15,m,m,m,0.7882941000862047,True,17
2B-DS2507M25,80,training,13,m,m,m,0.7613977999426425,True,17
2B-DS2507M25,81,training,13,z,z,z,0.741804400109686,True,17
2B-DS2507M25,82,experiment,12,z,z,z,0.7972567999968305,True,17
2B-DS2507M25,83,experiment,14,n,m,m,0.8592322999611497,False,17
2B-DS2507M25,84,experiment,13,m,no_key,no_letter,-1.0,False,17
2B-DS2507M25,85,experiment,15,z,no_key,no_letter,-1.0,False,17
2B-DS2507M25,86,training,13,x,x,x,0.7369046000530943,True,18
2B-DS2507M25,87,training,13,n,x,x,1.0085862000705674,False,18
2B-DS2507M25,88,experiment,15,m,m,m,0.7459811000153422,True,18
2B-DS2507M25,89,experiment,13,x,n,n,0.9673625000286847,False,18
2B-DS2507M25,90,experiment,14,x,x,x,0.9097962999949232,True,18
2B-DS2507M25,91,experiment,12,z,z,z,0.8314790999284014,True,18
