PART_ID,Trial_no,Trial_type,CSI,Stim_letter,Key_pressed,letter_choose,Rt,Corr,Stimulus Time
2B-DN0607M22,1,training,12,x,x,x,0.7743700999999419,True,30
2B-DN0607M22,2,training,12,m,n,n,0.7726388999726623,False,30
2B-DN0607M22,3,training,12,z,z,z,0.7321313999709673,True,30
2B-DN0607M22,4,training,12,z,z,z,0.9775889000156894,True,30
2B-DN0607M22,5,training,12,m,m,m,1.1752519000438042,True,30
2B-DN0607M22,6,training,12,x,x,x,0.8258597000385635,True,30
2B-DN0607M22,7,training,12,z,z,z,0.7047932000132278,True,30
2B-DN0607M22,8,training,12,m,m,m,0.8653393000131473,True,30
2B-DN0607M22,9,training,12,n,n,n,0.4347262000082992,True,30
2B-DN0607M22,10,training,12,x,z,z,0.691588599991519,False,30
2B-DN0607M22,11,training,12,x,x,x,1.5306948000215925,True,30
2B-DN0607M22,12,training,12,x,x,x,1.1683095999760553,True,30
2B-DN0607M22,13,training,12,n,n,n,0.9483026000089012,True,30
2B-DN0607M22,14,training,12,m,m,m,1.5491463000071235,True,30
2B-DN0607M22,15,training,12,m,m,m,0.9569770999951288,True,30
2B-DN0607M22,16,training,12,m,m,m,0.972302199981641,True,18
2B-DN0607M22,17,training,12,x,x,x,0.8646760000265203,True,18
2B-DN0607M22,18,training,12,n,n,n,0.5674522999906912,True,18
2B-DN0607M22,19,training,12,x,z,z,1.2244076000060886,False,18
2B-DN0607M22,20,training,12,m,m,m,0.5095707000000402,True,18
2B-DN0607M22,21,training,12,m,x,x,0.017708699975628406,False,18
2B-DN0607M22,22,training,12,z,z,z,0.7890240999986418,True,18
2B-DN0607M22,23,training,12,m,m,m,0.5366610999917611,True,18
2B-DN0607M22,24,training,12,m,m,m,0.743214700021781,True,18
2B-DN0607M22,25,training,12,z,z,z,0.8662443000357598,True,18
2B-DN0607M22,26,training,13,m,m,m,0.6861392999999225,True,15
2B-DN0607M22,27,training,14,m,n,n,1.3297125000390224,False,15
2B-DN0607M22,28,experiment,13,x,x,x,1.1040521999821067,True,15
2B-DN0607M22,29,experiment,12,x,z,z,1.0548015999956988,False,15
2B-DN0607M22,30,experiment,15,n,m,m,1.0354166000033729,False,15
2B-DN0607M22,31,experiment,14,z,z,z,0.938748000015039,True,15
2B-DN0607M22,32,training,12,z,z,z,0.7733111999696121,True,16
2B-DN0607M22,33,training,15,z,z,z,1.092201700026635,True,16
2B-DN0607M22,34,experiment,15,m,m,m,0.6088663000264205,True,16
2B-DN0607M22,35,experiment,12,x,z,z,0.8018793999799527,False,16
2B-DN0607M22,36,experiment,13,n,n,n,0.7686348000424914,True,16
2B-DN0607M22,37,experiment,14,z,z,z,0.8948977999971248,True,16
2B-DN0607M22,38,training,15,m,m,m,1.103242900047917,True,16
2B-DN0607M22,39,training,13,n,n,n,0.6819626999786124,True,16
2B-DN0607M22,40,experiment,14,m,m,m,0.7716620999854058,True,16
2B-DN0607M22,41,experiment,15,x,x,x,1.1526151000289246,True,16
2B-DN0607M22,42,experiment,13,m,m,m,0.9057409999659285,True,16
2B-DN0607M22,43,experiment,12,m,m,m,0.8903324999846518,True,16
2B-DN0607M22,44,training,15,m,x,x,1.5393824000493623,False,15
2B-DN0607M22,45,training,12,m,m,m,0.6659296000143513,True,15
2B-DN0607M22,46,experiment,12,z,z,z,1.0546277000103146,True,15
2B-DN0607M22,47,experiment,14,x,x,x,1.7033460999955423,True,15
2B-DN0607M22,48,experiment,13,n,m,m,1.1559341000393033,False,15
2B-DN0607M22,49,experiment,15,n,n,n,0.7251082999864593,True,15
2B-DN0607M22,50,training,12,z,z,z,1.464202499948442,True,15
2B-DN0607M22,51,training,15,z,z,z,0.9305626000277698,True,15
2B-DN0607M22,52,experiment,15,n,n,n,1.1583253999706358,True,15
2B-DN0607M22,53,experiment,13,z,z,z,0.8752346999826841,True,15
2B-DN0607M22,54,experiment,12,n,n,n,0.7937219999730587,True,15
2B-DN0607M22,55,experiment,14,z,z,z,0.7666899000178091,True,15
2B-DN0607M22,56,training,15,z,x,x,1.7574000000022352,False,14
2B-DN0607M22,57,training,14,x,x,x,0.617483300040476,True,14
2B-DN0607M22,58,experiment,14,z,z,z,0.8385090000228956,True,14
2B-DN0607M22,59,experiment,12,m,m,m,0.9038869999931194,True,14
2B-DN0607M22,60,experiment,15,x,x,x,0.9187301000347361,True,14
2B-DN0607M22,61,experiment,13,m,m,m,0.9283282000105828,True,14
2B-DN0607M22,62,training,12,z,z,z,1.2963645999552682,True,13
2B-DN0607M22,63,training,15,n,n,n,0.6533595999935642,True,13
2B-DN0607M22,64,experiment,13,m,m,m,0.6697716999915428,True,13
2B-DN0607M22,65,experiment,15,n,n,n,1.350950499996543,True,13
2B-DN0607M22,66,experiment,14,x,n,n,0.8767047000001185,False,13
2B-DN0607M22,67,experiment,12,x,n,n,1.0687614000053145,False,13
2B-DN0607M22,68,training,13,z,z,z,0.7421106999972835,True,14
2B-DN0607M22,69,training,13,z,x,x,1.251786999986507,False,14
2B-DN0607M22,70,experiment,13,n,n,n,0.5975638999952935,True,14
2B-DN0607M22,71,experiment,14,n,n,n,0.7605241000419483,True,14
2B-DN0607M22,72,experiment,12,x,m,m,1.0528361000469886,False,14
2B-DN0607M22,73,experiment,15,m,m,m,0.7471763000357896,True,14
2B-DN0607M22,74,training,12,m,m,m,0.661750299972482,True,14
2B-DN0607M22,75,training,15,n,z,z,0.8182804000098258,False,14
2B-DN0607M22,76,experiment,13,n,n,n,0.9504305999726057,True,14
2B-DN0607M22,77,experiment,14,m,x,x,1.5261012999690138,False,14
2B-DN0607M22,78,experiment,15,m,m,m,0.7414081000024453,True,14
2B-DN0607M22,79,experiment,12,x,z,z,1.1952159000211395,False,14
2B-DN0607M22,80,training,13,m,z,z,1.1155916000134312,False,15
2B-DN0607M22,81,training,15,n,n,n,0.6967128000105731,True,15
2B-DN0607M22,82,experiment,12,n,n,n,0.7387759999837726,True,15
2B-DN0607M22,83,experiment,15,n,n,n,0.901353899971582,True,15
2B-DN0607M22,84,experiment,14,m,z,z,0.8573282000143081,False,15
2B-DN0607M22,85,experiment,13,x,x,x,0.91598479996901,True,15
2B-DN0607M22,86,training,13,z,z,z,0.8384347000392154,True,15
2B-DN0607M22,87,training,15,z,z,z,0.7291154999984428,True,15
2B-DN0607M22,88,experiment,15,m,m,m,0.8958966999780387,True,15
2B-DN0607M22,89,experiment,13,m,m,m,0.834591300052125,True,15
2B-DN0607M22,90,experiment,14,m,n,n,0.7816068999818526,False,15
2B-DN0607M22,91,experiment,12,x,n,n,1.4133531000115909,False,15
