PART_ID,Trial_no,Trial_type,CSI,Stim_letter,Key_pressed,letter_choose,Rt,Corr,Stimulus Time2B-JR2204K22,1,training,12,x,x,x,1.277902500005439,True,302B-JR2204K22,2,training,12,m,m,m,1.2131675999844447,True,302B-JR2204K22,3,training,12,z,z,z,0.8027123999781907,True,302B-JR2204K22,4,training,12,x,x,x,0.9294360999483615,True,302B-JR2204K22,5,training,12,x,x,x,0.937452599988319,True,302B-JR2204K22,6,training,12,x,x,x,1.1919324999907985,True,302B-JR2204K22,7,training,12,m,m,m,1.3490124000236392,True,302B-JR2204K22,8,training,12,z,z,z,1.3350452999584377,True,302B-JR2204K22,9,training,12,z,z,z,0.9137916999170557,True,302B-JR2204K22,10,training,12,z,z,z,0.9318125999998301,True,302B-JR2204K22,11,training,12,z,n,n,2.062087199999951,False,302B-JR2204K22,12,training,12,n,n,n,1.0076282999943942,True,302B-JR2204K22,13,training,12,x,x,x,1.340106299961917,True,302B-JR2204K22,14,training,12,n,n,n,1.2380816999357194,True,302B-JR2204K22,15,training,12,n,n,n,1.0893884999677539,True,302B-JR2204K22,16,training,12,z,m,m,1.5218514000298455,False,182B-JR2204K22,17,training,12,n,n,n,1.2196321999654174,True,182B-JR2204K22,18,training,12,m,m,m,1.0442995999474078,True,182B-JR2204K22,19,training,12,x,n,n,1.1192801999859512,False,182B-JR2204K22,20,training,12,n,n,n,0.7947181999916211,True,182B-JR2204K22,21,training,12,n,n,n,0.9295769000891596,True,182B-JR2204K22,22,training,12,m,m,m,1.009325500112027,True,182B-JR2204K22,23,training,12,n,n,n,0.8075733000878245,True,182B-JR2204K22,24,training,12,x,x,x,1.3132377000292763,True,182B-JR2204K22,25,training,12,m,m,m,1.0368195000337437,True,182B-JR2204K22,26,training,15,x,x,x,1.0071022000629455,True,152B-JR2204K22,27,training,13,n,n,n,1.089964099926874,True,152B-JR2204K22,28,experiment,12,n,n,n,0.8086956000188366,True,152B-JR2204K22,29,experiment,14,x,n,n,1.0613355999812484,False,152B-JR2204K22,30,experiment,13,n,n,n,0.8115677000023425,True,152B-JR2204K22,31,experiment,15,m,m,m,0.7986009999876842,True,152B-JR2204K22,32,training,13,m,m,m,1.29079409991391,True,152B-JR2204K22,33,training,14,z,n,n,1.0616108999820426,False,152B-JR2204K22,34,experiment,12,m,x,x,1.3089290000498295,False,152B-JR2204K22,35,experiment,13,m,m,m,1.0201376000186428,True,152B-JR2204K22,36,experiment,14,n,n,n,0.7889993999851868,True,152B-JR2204K22,37,experiment,15,z,z,z,1.2528236999642104,True,152B-JR2204K22,38,training,14,z,n,n,1.0865884000668302,False,152B-JR2204K22,39,training,14,z,z,z,0.8976402999833226,True,152B-JR2204K22,40,experiment,13,z,z,z,0.7120493999682367,True,152B-JR2204K22,41,experiment,15,n,n,n,0.9586553999688476,True,152B-JR2204K22,42,experiment,14,m,m,m,0.8723711000056937,True,152B-JR2204K22,43,experiment,12,z,z,z,0.8454720999579877,True,152B-JR2204K22,44,training,12,z,z,z,1.0073896000394598,True,142B-JR2204K22,45,training,15,z,n,n,1.017534999991767,False,142B-JR2204K22,46,experiment,15,m,m,m,0.8992875000694767,True,142B-JR2204K22,47,experiment,12,x,x,x,1.1085146000841632,True,142B-JR2204K22,48,experiment,14,n,n,n,0.9959865000564605,True,142B-JR2204K22,49,experiment,13,m,n,n,0.9654392999364063,False,142B-JR2204K22,50,training,14,m,no_key,no_letter,-1.0,False,142B-JR2204K22,51,training,15,n,n,n,0.9255526000633836,True,142B-JR2204K22,52,experiment,13,n,n,n,0.7140968000749126,True,142B-JR2204K22,53,experiment,15,m,m,m,0.8571176000405103,True,142B-JR2204K22,54,experiment,12,z,z,z,1.323705399991013,True,142B-JR2204K22,55,experiment,14,x,no_key,no_letter,-1.0,False,142B-JR2204K22,56,training,12,x,n,n,1.254366800072603,False,142B-JR2204K22,57,training,13,m,n,n,1.0008663000771776,False,142B-JR2204K22,58,experiment,15,n,n,n,0.9047858000267297,True,142B-JR2204K22,59,experiment,13,x,x,x,1.0776817000005394,True,142B-JR2204K22,60,experiment,14,m,m,m,0.8705959999933839,True,142B-JR2204K22,61,experiment,12,z,x,x,1.2158350000390783,False,142B-JR2204K22,62,training,13,n,n,n,1.012820899952203,True,142B-JR2204K22,63,training,15,x,x,x,1.0188618000829592,True,142B-JR2204K22,64,experiment,12,n,m,m,1.4169542000163347,False,142B-JR2204K22,65,experiment,13,x,x,x,0.961928200093098,True,142B-JR2204K22,66,experiment,15,z,n,n,1.1376752000069246,False,142B-JR2204K22,67,experiment,14,n,no_key,no_letter,-1.0,False,142B-JR2204K22,68,training,12,m,m,m,0.9041231001028791,True,152B-JR2204K22,69,training,13,z,z,z,0.7108688000589609,True,152B-JR2204K22,70,experiment,15,n,no_key,no_letter,-1.0,False,152B-JR2204K22,71,experiment,13,m,m,m,0.9686294000130147,True,152B-JR2204K22,72,experiment,12,x,x,x,1.1093912000069395,True,152B-JR2204K22,73,experiment,14,z,z,z,0.9293421000475064,True,152B-JR2204K22,74,training,12,x,m,m,1.8328892999561504,False,152B-JR2204K22,75,training,15,z,z,z,0.6262740000383928,True,152B-JR2204K22,76,experiment,15,n,n,n,0.8948366999393329,True,152B-JR2204K22,77,experiment,12,m,m,m,0.9426795000908896,True,152B-JR2204K22,78,experiment,14,m,m,m,0.736483299988322,True,152B-JR2204K22,79,experiment,13,z,z,z,0.6793033999856561,True,152B-JR2204K22,80,training,12,m,m,m,1.0484930999809876,True,142B-JR2204K22,81,training,15,m,n,n,1.280977000016719,False,142B-JR2204K22,82,experiment,12,x,x,x,1.0241529999766499,True,142B-JR2204K22,83,experiment,15,n,n,n,0.9626769999740645,True,142B-JR2204K22,84,experiment,13,z,z,z,1.208037699921988,True,142B-JR2204K22,85,experiment,14,x,m,m,1.2419991000788286,False,142B-JR2204K22,86,training,13,x,x,x,1.2893139999359846,True,142B-JR2204K22,87,training,12,x,n,n,1.577271300018765,False,142B-JR2204K22,88,experiment,12,x,x,x,1.0058280000230297,True,142B-JR2204K22,89,experiment,15,z,z,z,0.7081196000799537,True,142B-JR2204K22,90,experiment,13,x,x,x,1.5890686999773607,True,142B-JR2204K22,91,experiment,14,m,m,m,0.8183277000207454,True,14