PART_ID,Trial_no,Trial_type,CSI,Stim_letter,Key_pressed,letter_choose,Rt,Corr,Stimulus Time2B-KZ0409M20,1,training,12,x,x,x,0.9048063999507576,True,302B-KZ0409M20,2,training,12,x,x,x,0.8420220999978483,True,302B-KZ0409M20,3,training,12,z,z,z,0.5840032999403775,True,302B-KZ0409M20,4,training,12,z,z,z,0.5672318999422714,True,302B-KZ0409M20,5,training,12,x,x,x,0.4678100999444723,True,302B-KZ0409M20,6,training,12,m,m,m,0.5171551000094041,True,302B-KZ0409M20,7,training,12,m,m,m,0.7253577000228688,True,302B-KZ0409M20,8,training,12,m,m,m,0.4344960000598803,True,302B-KZ0409M20,9,training,12,x,x,x,0.6170190999982879,True,302B-KZ0409M20,10,training,12,x,x,x,2.1301946999737993,True,302B-KZ0409M20,11,training,12,n,n,n,0.7502591999946162,True,302B-KZ0409M20,12,training,12,x,x,x,0.533640299923718,True,302B-KZ0409M20,13,training,12,x,x,x,0.5173385000089183,True,302B-KZ0409M20,14,training,12,n,n,n,0.6690227000508457,True,302B-KZ0409M20,15,training,12,m,m,m,0.5340431000804529,True,302B-KZ0409M20,16,training,12,x,x,x,0.7416756999446079,True,182B-KZ0409M20,17,training,12,z,x,x,0.646939400001429,False,182B-KZ0409M20,18,training,12,m,m,m,0.5628517000004649,True,182B-KZ0409M20,19,training,12,z,z,z,0.9172379999654368,True,182B-KZ0409M20,20,training,12,n,n,n,0.6580141000449657,True,182B-KZ0409M20,21,training,12,n,n,n,1.3194721000036225,True,182B-KZ0409M20,22,training,12,n,n,n,1.0322402999736369,True,182B-KZ0409M20,23,training,12,n,n,n,0.5048795000184327,True,182B-KZ0409M20,24,training,12,n,m,m,0.9638403999852017,False,182B-KZ0409M20,25,training,12,m,m,m,0.6989192999899387,True,182B-KZ0409M20,26,training,12,n,n,n,0.5106972999637946,True,152B-KZ0409M20,27,training,15,x,n,n,1.0123845000052825,False,152B-KZ0409M20,28,experiment,13,x,x,x,0.6123689000960439,True,152B-KZ0409M20,29,experiment,12,x,x,x,1.092244900064543,True,152B-KZ0409M20,30,experiment,15,x,x,x,0.5853845999808982,True,152B-KZ0409M20,31,experiment,14,z,x,x,1.2439469000091776,False,152B-KZ0409M20,32,training,13,x,x,x,0.5398049000650644,True,152B-KZ0409M20,33,training,15,n,n,n,0.6846203000750393,True,152B-KZ0409M20,34,experiment,13,x,x,x,0.5562234999379143,True,152B-KZ0409M20,35,experiment,14,n,x,x,0.7418855000287294,False,152B-KZ0409M20,36,experiment,12,x,x,x,0.5027306000702083,True,152B-KZ0409M20,37,experiment,15,x,x,x,0.5700912999454886,True,152B-KZ0409M20,38,training,15,m,m,m,0.5956931000109762,True,152B-KZ0409M20,39,training,12,n,n,n,0.5321322999661788,True,152B-KZ0409M20,40,experiment,14,x,n,n,0.9296588000142947,False,152B-KZ0409M20,41,experiment,12,z,z,z,0.7876042999560013,True,152B-KZ0409M20,42,experiment,13,n,n,n,0.6411576999817044,True,152B-KZ0409M20,43,experiment,15,z,n,n,0.8086091999430209,False,152B-KZ0409M20,44,training,12,m,n,n,0.8427565000019968,False,162B-KZ0409M20,45,training,15,x,z,z,0.9754244000650942,False,162B-KZ0409M20,46,experiment,13,n,n,n,0.6696692999685183,True,162B-KZ0409M20,47,experiment,14,x,z,z,0.9163269000127912,False,162B-KZ0409M20,48,experiment,12,m,m,m,0.6694413999794051,True,162B-KZ0409M20,49,experiment,15,m,n,n,0.9288202000316232,False,162B-KZ0409M20,50,training,14,n,z,z,0.9799436000175774,False,172B-KZ0409M20,51,training,15,n,n,n,0.7029958999482915,True,172B-KZ0409M20,52,experiment,13,m,m,m,0.5921455000061542,True,172B-KZ0409M20,53,experiment,12,n,n,n,0.552131799980998,True,172B-KZ0409M20,54,experiment,14,x,x,x,0.8744946999941021,True,172B-KZ0409M20,55,experiment,15,m,m,m,0.571129999938421,True,172B-KZ0409M20,56,training,13,n,n,n,0.8377833000849932,True,162B-KZ0409M20,57,training,13,n,n,n,0.6119565999833867,True,162B-KZ0409M20,58,experiment,12,m,m,m,0.514959599939175,True,162B-KZ0409M20,59,experiment,15,x,x,x,0.5787418999243528,True,162B-KZ0409M20,60,experiment,13,m,m,m,0.6002698000520468,True,162B-KZ0409M20,61,experiment,14,m,n,n,0.6761661000782624,False,162B-KZ0409M20,62,training,12,x,x,x,0.5443944999715313,True,162B-KZ0409M20,63,training,12,z,z,z,0.5104230999713764,True,162B-KZ0409M20,64,experiment,14,x,x,x,0.6109299999661744,True,162B-KZ0409M20,65,experiment,12,m,z,z,1.0723504000343382,False,162B-KZ0409M20,66,experiment,13,m,m,m,0.5097698000026867,True,162B-KZ0409M20,67,experiment,15,z,x,x,0.6380155000369996,False,162B-KZ0409M20,68,training,14,n,n,n,0.6442105999449268,True,172B-KZ0409M20,69,training,15,z,m,m,0.6177856998983771,False,172B-KZ0409M20,70,experiment,13,n,n,n,0.7768121999688447,True,172B-KZ0409M20,71,experiment,15,x,x,x,0.7978753000497818,True,172B-KZ0409M20,72,experiment,14,m,m,m,0.7406473000301048,True,172B-KZ0409M20,73,experiment,12,m,m,m,0.747615100000985,True,172B-KZ0409M20,74,training,15,z,z,z,0.5739183999830857,True,162B-KZ0409M20,75,training,12,x,n,n,0.7901403999421746,False,162B-KZ0409M20,76,experiment,13,m,m,m,0.7539425001014024,True,162B-KZ0409M20,77,experiment,15,n,n,n,0.6737845999887213,True,162B-KZ0409M20,78,experiment,14,n,n,n,0.7042205000761896,True,162B-KZ0409M20,79,experiment,12,z,n,n,0.7844214999349788,False,162B-KZ0409M20,80,training,14,x,z,z,0.8964560000458732,False,162B-KZ0409M20,81,training,12,z,z,z,1.5598659999668598,True,162B-KZ0409M20,82,experiment,12,m,z,z,0.8894117000745609,False,162B-KZ0409M20,83,experiment,15,n,z,z,0.5729780999245122,False,162B-KZ0409M20,84,experiment,14,x,x,x,0.6711180999409407,True,162B-KZ0409M20,85,experiment,13,n,m,m,1.4757346000988036,False,162B-KZ0409M20,86,training,12,n,n,n,0.7691267000045627,True,172B-KZ0409M20,87,training,12,z,z,z,0.9063753999071196,True,172B-KZ0409M20,88,experiment,15,n,z,z,1.090935599990189,False,172B-KZ0409M20,89,experiment,13,m,m,m,0.6832401000428945,True,172B-KZ0409M20,90,experiment,12,z,z,z,0.7433264999417588,True,172B-KZ0409M20,91,experiment,14,n,n,n,0.6384797999635339,True,17