PART_ID,Trial_no,Trial_type,CSI,Stim_letter,Key_pressed,letter_choose,Rt,Corr,Stimulus Time2B-KR2406M30,1,training,12,m,m,m,1.455624100053683,True,302B-KR2406M30,2,training,12,x,n,n,0.7723876000382006,False,302B-KR2406M30,3,training,12,z,z,z,0.5339579000137746,True,302B-KR2406M30,4,training,12,x,x,x,1.061073400080204,True,302B-KR2406M30,5,training,12,m,m,m,1.43479139986448,True,302B-KR2406M30,6,training,12,z,z,z,1.3463241998106241,True,302B-KR2406M30,7,training,12,x,x,x,0.7707609001081437,True,302B-KR2406M30,8,training,12,z,z,z,0.8381263001356274,True,302B-KR2406M30,9,training,12,x,no_key,no_letter,-1.0,False,302B-KR2406M30,10,training,12,x,x,x,0.7025809998158365,True,302B-KR2406M30,11,training,12,n,n,n,0.7561693999450654,True,302B-KR2406M30,12,training,12,m,m,m,1.8374028999824077,True,302B-KR2406M30,13,training,12,z,z,z,0.6339314000215381,True,302B-KR2406M30,14,training,12,m,m,m,0.9660304998978972,True,302B-KR2406M30,15,training,12,n,n,n,1.0679897000081837,True,302B-KR2406M30,16,training,12,n,n,n,0.704257900128141,True,182B-KR2406M30,17,training,12,m,m,m,0.657540500164032,True,182B-KR2406M30,18,training,12,n,n,n,0.7081855998840183,True,182B-KR2406M30,19,training,12,z,z,z,0.5208120001479983,True,182B-KR2406M30,20,training,12,x,x,x,1.2356343001592904,True,182B-KR2406M30,21,training,12,z,z,z,0.687986700097099,True,182B-KR2406M30,22,training,12,m,m,m,0.9970134000759572,True,182B-KR2406M30,23,training,12,m,m,m,0.67911779996939,True,182B-KR2406M30,24,training,12,x,x,x,0.8351152001414448,True,182B-KR2406M30,25,training,12,x,m,m,0.993161000078544,False,182B-KR2406M30,26,training,13,m,no_key,no_letter,-1.0,False,152B-KR2406M30,27,training,12,m,z,z,1.349135500146076,False,152B-KR2406M30,28,experiment,13,x,z,z,1.7790890000760555,False,152B-KR2406M30,29,experiment,14,n,m,m,0.664284999947995,False,152B-KR2406M30,30,experiment,12,z,no_key,no_letter,-1.0,False,152B-KR2406M30,31,experiment,15,z,z,z,0.8602975001558661,True,152B-KR2406M30,32,training,13,z,x,x,0.8980090001132339,False,162B-KR2406M30,33,training,14,z,z,z,0.5025309000629932,True,162B-KR2406M30,34,experiment,13,x,x,x,0.6225599001627415,True,162B-KR2406M30,35,experiment,15,n,n,n,1.6853976000566036,True,162B-KR2406M30,36,experiment,14,x,x,x,0.6866219001822174,True,162B-KR2406M30,37,experiment,12,n,n,n,1.1799948001280427,True,162B-KR2406M30,38,training,12,n,x,x,1.5301536000333726,False,152B-KR2406M30,39,training,13,x,x,x,0.6147070999722928,True,152B-KR2406M30,40,experiment,15,z,z,z,1.1422947000246495,True,152B-KR2406M30,41,experiment,14,m,m,m,1.278227400034666,True,152B-KR2406M30,42,experiment,12,z,z,z,0.6204962998162955,True,152B-KR2406M30,43,experiment,13,m,x,x,0.9828567998483777,False,152B-KR2406M30,44,training,12,m,n,n,1.610558700049296,False,152B-KR2406M30,45,training,12,m,m,m,0.734213599935174,True,152B-KR2406M30,46,experiment,13,z,z,z,0.7838985999114811,True,152B-KR2406M30,47,experiment,14,z,x,x,1.1567077001091093,False,152B-KR2406M30,48,experiment,15,n,z,z,1.5446349999401718,False,152B-KR2406M30,49,experiment,12,n,n,n,0.8164764000102878,True,152B-KR2406M30,50,training,15,z,x,x,1.083397600101307,False,162B-KR2406M30,51,training,14,z,z,z,0.5418567000888288,True,162B-KR2406M30,52,experiment,14,x,x,x,0.7792545000556856,True,162B-KR2406M30,53,experiment,15,n,m,m,1.1613501000683755,False,162B-KR2406M30,54,experiment,12,n,x,x,1.061021599918604,False,162B-KR2406M30,55,experiment,13,m,m,m,1.3307455000467598,True,162B-KR2406M30,56,training,12,m,no_key,no_letter,-1.0,False,172B-KR2406M30,57,training,15,m,m,m,0.8370401998981833,True,172B-KR2406M30,58,experiment,12,n,m,m,0.8090336001478136,False,172B-KR2406M30,59,experiment,13,z,z,z,0.6323774000629783,True,172B-KR2406M30,60,experiment,15,z,z,z,0.5410754999611527,True,172B-KR2406M30,61,experiment,14,n,x,x,0.9562619999051094,False,172B-KR2406M30,62,training,14,n,m,m,0.7773702000267804,False,182B-KR2406M30,63,training,15,x,x,x,0.5635708998888731,True,182B-KR2406M30,64,experiment,13,z,z,z,0.9747393999714404,True,182B-KR2406M30,65,experiment,12,m,m,m,0.9453944000415504,True,182B-KR2406M30,66,experiment,14,n,n,n,0.5614895999897271,True,182B-KR2406M30,67,experiment,15,m,m,m,0.5462959001306444,True,182B-KR2406M30,68,training,12,m,n,n,1.0659965998493135,False,172B-KR2406M30,69,training,12,z,z,z,0.7095834000501782,True,172B-KR2406M30,70,experiment,15,z,n,n,1.1922374998684973,False,172B-KR2406M30,71,experiment,14,x,x,x,0.6741454999428242,True,172B-KR2406M30,72,experiment,12,x,z,z,0.8776598998811096,False,172B-KR2406M30,73,experiment,13,x,n,n,0.7877748999744654,False,172B-KR2406M30,74,training,12,m,m,m,0.7345538998488337,True,182B-KR2406M30,75,training,13,z,z,z,0.5620397999882698,True,182B-KR2406M30,76,experiment,14,x,x,x,0.913953699870035,True,182B-KR2406M30,77,experiment,12,m,n,n,1.0044926998671144,False,182B-KR2406M30,78,experiment,15,m,m,m,0.5452746998053044,True,182B-KR2406M30,79,experiment,13,x,x,x,0.9061366999521852,True,182B-KR2406M30,80,training,13,n,n,n,0.6028277999721467,True,182B-KR2406M30,81,training,12,z,x,x,1.081569700036198,False,182B-KR2406M30,82,experiment,14,n,m,m,0.9102920999284834,False,182B-KR2406M30,83,experiment,13,n,n,n,0.6700011000502855,True,182B-KR2406M30,84,experiment,12,n,n,n,0.6235466999933124,True,182B-KR2406M30,85,experiment,15,m,m,m,0.5111636000219733,True,182B-KR2406M30,86,training,14,m,x,x,1.9542660000734031,False,182B-KR2406M30,87,training,12,n,no_key,no_letter,-1.0,False,182B-KR2406M30,88,experiment,14,z,z,z,0.8140008999034762,True,182B-KR2406M30,89,experiment,12,m,no_key,no_letter,-1.0,False,182B-KR2406M30,90,experiment,15,m,m,m,0.6925258000846952,True,182B-KR2406M30,91,experiment,13,x,x,x,0.8193469000980258,True,18