PART_ID,Trial_no,Trial_type,CSI,Stim_letter,Key_pressed,letter_choose,Rt,Corr,Stimulus Time
2B-MJ1708K23,1,training,12,m,m,m,1.0270500000333413,True,30
2B-MJ1708K23,2,training,12,z,z,z,0.6343469999264926,True,30
2B-MJ1708K23,3,training,12,m,m,m,0.6896105000050738,True,30
2B-MJ1708K23,4,training,12,m,m,m,0.6915152999572456,True,30
2B-MJ1708K23,5,training,12,x,z,z,0.7306997999548912,False,30
2B-MJ1708K23,6,training,12,z,z,z,0.955575600033626,True,30
2B-MJ1708K23,7,training,12,z,x,x,0.8024491999531165,False,30
2B-MJ1708K23,8,training,12,m,no_key,no_letter,-1.0,False,30
2B-MJ1708K23,9,training,12,n,n,n,0.8450297000817955,True,30
2B-MJ1708K23,10,training,12,n,n,n,0.6338889000471681,True,30
2B-MJ1708K23,11,training,12,n,n,n,0.5003288000589237,True,30
2B-MJ1708K23,12,training,12,m,m,m,0.8900225000688806,True,30
2B-MJ1708K23,13,training,12,z,z,z,0.8082944999914616,True,30
2B-MJ1708K23,14,training,12,n,n,n,0.6174411000683904,True,30
2B-MJ1708K23,15,training,12,m,m,m,0.6866082999622449,True,30
2B-MJ1708K23,16,training,12,x,z,z,1.6699471999891102,False,18
2B-MJ1708K23,17,training,12,m,m,m,0.7243702000705525,True,18
2B-MJ1708K23,18,training,12,m,m,m,0.6321489000692964,True,18
2B-MJ1708K23,19,training,12,z,z,z,0.6402624000329524,True,18
2B-MJ1708K23,20,training,12,m,m,m,0.7149209999479353,True,18
2B-MJ1708K23,21,training,12,x,z,z,0.8690130000468343,False,18
2B-MJ1708K23,22,training,12,x,x,x,0.6247200999641791,True,18
2B-MJ1708K23,23,training,12,n,n,n,0.8810155999381095,True,18
2B-MJ1708K23,24,training,12,n,n,n,0.6867652999935672,True,18
2B-MJ1708K23,25,training,12,z,z,z,0.7186599000124261,True,18
2B-MJ1708K23,26,training,14,m,m,m,0.6701646000146866,True,15
2B-MJ1708K23,27,training,15,m,m,m,0.6678602000465617,True,15
2B-MJ1708K23,28,experiment,13,z,z,z,0.5452483999542892,True,15
2B-MJ1708K23,29,experiment,14,x,z,z,0.9681720000226051,False,15
2B-MJ1708K23,30,experiment,12,m,m,m,0.5588575999718159,True,15
2B-MJ1708K23,31,experiment,15,x,x,x,0.645637100096792,True,15
2B-MJ1708K23,32,training,15,z,z,z,0.6998015999561176,True,15
2B-MJ1708K23,33,training,12,x,z,z,0.9527611000230536,False,15
2B-MJ1708K23,34,experiment,14,z,z,z,0.5357552000787109,True,15
2B-MJ1708K23,35,experiment,13,z,no_key,no_letter,-1.0,False,15
2B-MJ1708K23,36,experiment,15,n,n,n,0.6322008999995887,True,15
2B-MJ1708K23,37,experiment,12,n,n,n,1.631809499929659,True,15
2B-MJ1708K23,38,training,14,z,z,z,0.654548899969086,True,15
2B-MJ1708K23,39,training,14,m,m,m,0.5437132000224665,True,15
2B-MJ1708K23,40,experiment,13,z,z,z,0.6221536999801174,True,15
2B-MJ1708K23,41,experiment,14,z,z,z,0.8785650000208989,True,15
2B-MJ1708K23,42,experiment,15,n,n,n,0.5106252999976277,True,15
2B-MJ1708K23,43,experiment,12,z,n,n,1.531133500044234,False,15
2B-MJ1708K23,44,training,12,n,z,z,0.739623099914752,False,15
2B-MJ1708K23,45,training,13,n,n,n,0.5813918999629095,True,15
2B-MJ1708K23,46,experiment,13,x,z,z,0.7311353998957202,False,15
2B-MJ1708K23,47,experiment,15,n,n,n,0.5628490000963211,True,15
2B-MJ1708K23,48,experiment,12,m,n,n,0.8700785000110045,False,15
2B-MJ1708K23,49,experiment,14,n,n,n,0.8045923999743536,True,15
2B-MJ1708K23,50,training,15,z,z,z,0.9032130999257788,True,16
2B-MJ1708K23,51,training,15,z,z,z,0.588085800060071,True,16
2B-MJ1708K23,52,experiment,12,n,z,z,0.826506600016728,False,16
2B-MJ1708K23,53,experiment,14,n,n,n,0.5028187000425532,True,16
2B-MJ1708K23,54,experiment,13,m,n,n,1.185482500004582,False,16
2B-MJ1708K23,55,experiment,15,x,x,x,0.6704212001059204,True,16
2B-MJ1708K23,56,training,12,x,x,x,1.2604223999660462,True,17
2B-MJ1708K23,57,training,12,x,x,x,0.6323985999915749,True,17
2B-MJ1708K23,58,experiment,14,n,n,n,0.628102199989371,True,17
2B-MJ1708K23,59,experiment,12,x,x,x,0.6513533999677747,True,17
2B-MJ1708K23,60,experiment,13,x,n,n,1.0266349000157788,False,17
2B-MJ1708K23,61,experiment,15,n,n,n,0.4811260000569746,True,17
2B-MJ1708K23,62,training,14,x,x,x,0.7553844000212848,True,17
2B-MJ1708K23,63,training,14,n,n,n,0.6565007999306545,True,17
2B-MJ1708K23,64,experiment,13,z,m,m,0.9137004000367597,False,17
2B-MJ1708K23,65,experiment,14,x,x,x,0.803587400005199,True,17
2B-MJ1708K23,66,experiment,15,z,z,z,0.9554332999978215,True,17
2B-MJ1708K23,67,experiment,12,n,n,n,0.5311818000627682,True,17
2B-MJ1708K23,68,training,12,z,n,n,1.6768581999931484,False,17
2B-MJ1708K23,69,training,13,z,x,x,1.7922620999161154,False,17
2B-MJ1708K23,70,experiment,12,n,n,n,0.38330270000733435,True,17
2B-MJ1708K23,71,experiment,15,z,x,x,1.2241446000989527,False,17
2B-MJ1708K23,72,experiment,14,m,n,n,0.47648860001936555,False,17
2B-MJ1708K23,73,experiment,13,x,x,x,0.785681499983184,True,17
2B-MJ1708K23,74,training,14,z,z,z,0.6845390000380576,True,18
2B-MJ1708K23,75,training,15,x,x,x,0.8132802000036463,True,18
2B-MJ1708K23,76,experiment,14,n,n,n,0.6894247999880463,True,18
2B-MJ1708K23,77,experiment,12,z,z,z,0.9528240999206901,True,18
2B-MJ1708K23,78,experiment,15,n,n,n,0.6488660000031814,True,18
2B-MJ1708K23,79,experiment,13,x,z,z,1.2657527000410482,False,18
2B-MJ1708K23,80,training,14,z,z,z,0.5687755000544712,True,18
2B-MJ1708K23,81,training,15,n,n,n,0.627245599986054,True,18
2B-MJ1708K23,82,experiment,12,z,n,n,0.6624579000053927,False,18
2B-MJ1708K23,83,experiment,15,n,no_key,no_letter,-1.0,False,18
2B-MJ1708K23,84,experiment,13,n,n,n,0.6575720000546426,True,18
2B-MJ1708K23,85,experiment,14,z,z,z,0.5178853999823332,True,18
2B-MJ1708K23,86,training,13,x,x,x,0.7899240999249741,True,18
2B-MJ1708K23,87,training,14,n,n,n,0.5082181999459863,True,18
2B-MJ1708K23,88,experiment,13,m,z,z,0.9174250999931246,False,18
2B-MJ1708K23,89,experiment,15,z,x,x,1.1517116000177339,False,18
2B-MJ1708K23,90,experiment,14,n,n,n,0.6763179000699893,True,18
2B-MJ1708K23,91,experiment,12,x,x,x,0.8329998999834061,True,18
