PART_ID,Trial_no,Trial_type,CSI,Stim_letter,Key_pressed,letter_choose,Rt,Corr,Stimulus Time
2A-AS2111M32,1,training,12,←,no_key,no_letter,-1.0,False,30
2A-AS2111M32,2,training,12,←,left,←,0.7658063999842852,True,30
2A-AS2111M32,3,training,12,←,right,→,1.5685498000821099,False,30
2A-AS2111M32,4,training,12,↑,up,↑,1.446706600021571,True,30
2A-AS2111M32,5,training,12,↑,up,↑,1.170417599962093,True,30
2A-AS2111M32,6,training,12,↑,up,↑,1.1745529999025166,True,30
2A-AS2111M32,7,training,12,←,left,←,1.1034820000641048,True,30
2A-AS2111M32,8,training,12,↑,up,↑,0.5337473000399768,True,30
2A-AS2111M32,9,training,12,←,right,→,1.3361592999426648,False,30
2A-AS2111M32,10,training,12,↑,up,↑,1.3830017999280244,True,30
2A-AS2111M32,11,training,12,↑,up,↑,1.0751872999826446,True,30
2A-AS2111M32,12,training,12,↓,down,↓,0.911809999961406,True,30
2A-AS2111M32,13,training,12,→,right,→,1.1804657999891788,True,30
2A-AS2111M32,14,training,12,↑,up,↑,0.7306075000669807,True,30
2A-AS2111M32,15,training,12,↑,up,↑,1.4035444000037387,True,30
2A-AS2111M32,16,training,12,↑,up,↑,1.363401300041005,True,18
2A-AS2111M32,17,training,12,←,left,←,0.7973560999380425,True,18
2A-AS2111M32,18,training,12,←,left,←,0.6628086999990046,True,18
2A-AS2111M32,19,training,12,↓,down,↓,0.7701868999283761,True,18
2A-AS2111M32,20,training,12,↓,down,↓,0.680707799969241,True,18
2A-AS2111M32,21,training,12,←,right,→,0.9409241999965161,False,18
2A-AS2111M32,22,training,12,↑,up,↑,0.7098217998864129,True,18
2A-AS2111M32,23,training,12,←,left,←,0.6751682000467554,True,18
2A-AS2111M32,24,training,12,↓,down,↓,0.7766252000583336,True,18
2A-AS2111M32,25,training,12,←,left,←,0.7257502001011744,True,18
2A-AS2111M32,26,training,12,↑,up,↑,1.1663776999339461,True,15
2A-AS2111M32,27,training,12,→,right,→,0.702735299943015,True,15
2A-AS2111M32,28,experiment,15,↓,down,↓,0.7123996999580413,True,15
2A-AS2111M32,29,experiment,12,↑,no_key,no_letter,-1.0,False,15
2A-AS2111M32,30,experiment,14,↓,down,↓,0.7415885000955313,True,15
2A-AS2111M32,31,experiment,13,→,right,→,0.7698426999850199,True,15
2A-AS2111M32,32,training,12,↓,down,↓,1.452826099935919,True,15
2A-AS2111M32,33,training,13,↑,up,↑,0.7393127999966964,True,15
2A-AS2111M32,34,experiment,12,↓,up,↑,1.2308223000727594,False,15
2A-AS2111M32,35,experiment,13,↑,down,↓,0.6752250000135973,False,15
2A-AS2111M32,36,experiment,15,↑,down,↓,0.8355297999223694,False,15
2A-AS2111M32,37,experiment,14,↑,up,↑,0.6749132999684662,True,15
2A-AS2111M32,38,training,15,→,left,←,1.4291826999979094,False,16
2A-AS2111M32,39,training,14,↑,up,↑,0.818731400067918,True,16
2A-AS2111M32,40,experiment,14,↓,down,↓,0.9879817999899387,True,16
2A-AS2111M32,41,experiment,13,↑,up,↑,0.7027109999908134,True,16
2A-AS2111M32,42,experiment,15,↑,up,↑,0.6516364000272006,True,16
2A-AS2111M32,43,experiment,12,→,right,→,0.6275164000689983,True,16
2A-AS2111M32,44,training,15,↑,up,↑,0.7266087000025436,True,15
2A-AS2111M32,45,training,13,→,right,→,0.7130307999905199,True,15
2A-AS2111M32,46,experiment,14,←,left,←,0.7285621999762952,True,15
2A-AS2111M32,47,experiment,12,↑,up,↑,0.8535960000008345,True,15
2A-AS2111M32,48,experiment,15,↑,up,↑,0.805461100069806,True,15
2A-AS2111M32,49,experiment,13,←,left,←,0.6316098000388592,True,15
2A-AS2111M32,50,training,12,↓,down,↓,0.6914096999680623,True,14
2A-AS2111M32,51,training,12,→,down,↓,1.0166995999170467,False,14
2A-AS2111M32,52,experiment,15,←,left,←,0.6653410999570042,True,14
2A-AS2111M32,53,experiment,12,←,left,←,0.7397880000062287,True,14
2A-AS2111M32,54,experiment,14,↑,up,↑,0.7385880999499932,True,14
2A-AS2111M32,55,experiment,13,←,left,←,0.919055899954401,True,14
2A-AS2111M32,56,training,13,→,right,→,0.6968527999706566,True,13
2A-AS2111M32,57,training,14,↓,right,→,0.7836162999738008,False,13
2A-AS2111M32,58,experiment,15,↑,up,↑,0.794853699975647,True,13
2A-AS2111M32,59,experiment,12,←,down,↓,0.7593562999973074,False,13
2A-AS2111M32,60,experiment,13,→,right,→,0.7109459000639617,True,13
2A-AS2111M32,61,experiment,14,↓,up,↑,0.8148057999787852,False,13
2A-AS2111M32,62,training,12,→,right,→,0.5672118000220507,True,14
2A-AS2111M32,63,training,15,↓,down,↓,0.6468199000228196,True,14
2A-AS2111M32,64,experiment,12,↑,up,↑,0.661576300044544,True,14
2A-AS2111M32,65,experiment,13,→,right,→,0.6387321000220254,True,14
2A-AS2111M32,66,experiment,14,↑,up,↑,0.7447081999853253,True,14
2A-AS2111M32,67,experiment,15,↑,up,↑,0.6703926000045612,True,14
2A-AS2111M32,68,training,13,←,left,←,0.8914255999261513,True,13
2A-AS2111M32,69,training,15,↑,up,↑,0.5417688000015914,True,13
2A-AS2111M32,70,experiment,12,→,right,→,0.5543266999302432,True,13
2A-AS2111M32,71,experiment,13,→,right,→,0.8011235999874771,True,13
2A-AS2111M32,72,experiment,14,↑,up,↑,0.7329028999665752,True,13
2A-AS2111M32,73,experiment,15,↓,up,↑,0.6246908999746665,False,13
2A-AS2111M32,74,training,13,←,left,←,0.6266907999524847,True,13
2A-AS2111M32,75,training,15,↑,up,↑,0.6846982999704778,True,13
2A-AS2111M32,76,experiment,12,↓,up,↑,0.7496046000160277,False,13
2A-AS2111M32,77,experiment,14,←,up,↑,0.6996973999775946,False,13
2A-AS2111M32,78,experiment,13,←,left,←,0.6856011000927538,True,13
2A-AS2111M32,79,experiment,15,→,right,→,0.6108400999801233,True,13
2A-AS2111M32,80,training,14,↓,up,↑,0.7372943999944255,False,14
2A-AS2111M32,81,training,12,↓,up,↑,0.8077763000037521,False,14
2A-AS2111M32,82,experiment,12,↑,up,↑,0.7892106999643147,True,14
2A-AS2111M32,83,experiment,15,↓,down,↓,0.6441829999675974,True,14
2A-AS2111M32,84,experiment,14,↑,up,↑,0.6820550999836996,True,14
2A-AS2111M32,85,experiment,13,←,left,←,0.7310883000027388,True,14
2A-AS2111M32,86,training,15,↑,up,↑,0.510103499982506,True,13
2A-AS2111M32,87,training,12,←,left,←,0.8929255000548437,True,13
2A-AS2111M32,88,experiment,13,→,left,←,0.7535421999637038,False,13
2A-AS2111M32,89,experiment,12,↓,down,↓,0.5988241999875754,True,13
2A-AS2111M32,90,experiment,15,↓,down,↓,0.591666900087148,True,13
2A-AS2111M32,91,experiment,14,→,right,→,0.6254948999267071,True,13
