PART_ID,Trial_no,Trial_type,CSI,Stim_letter,Key_pressed,letter_choose,Rt,Corr,Stimulus Time
2A-AM2704M26,1,training,12,←,no_key,no_letter,-1.0,False,30
2A-AM2704M26,2,training,12,↓,no_key,no_letter,-1.0,False,30
2A-AM2704M26,3,training,12,↓,no_key,no_letter,-1.0,False,30
2A-AM2704M26,4,training,12,↑,down,↓,0.4838948999531567,False,30
2A-AM2704M26,5,training,12,↓,right,→,0.6339209000580013,False,30
2A-AM2704M26,6,training,12,→,right,→,1.5616113003343344,True,30
2A-AM2704M26,7,training,12,→,right,→,0.6005623997189105,True,30
2A-AM2704M26,8,training,12,→,no_key,no_letter,-1.0,False,30
2A-AM2704M26,9,training,12,←,left,←,0.4837694000452757,True,30
2A-AM2704M26,10,training,12,↑,left,←,0.4511239998973906,False,30
2A-AM2704M26,11,training,12,←,no_key,no_letter,-1.0,False,30
2A-AM2704M26,12,training,12,→,no_key,no_letter,-1.0,False,30
2A-AM2704M26,13,training,12,←,left,←,1.0718030002899468,True,30
2A-AM2704M26,14,training,12,→,no_key,no_letter,-1.0,False,30
2A-AM2704M26,15,training,12,←,left,←,0.6677720001898706,True,30
2A-AM2704M26,16,training,12,↑,no_key,no_letter,-1.0,False,18
2A-AM2704M26,17,training,12,↑,no_key,no_letter,-1.0,False,18
2A-AM2704M26,18,training,12,↓,down,↓,0.5042682001367211,True,18
2A-AM2704M26,19,training,12,↓,down,↓,0.5916571002453566,True,18
2A-AM2704M26,20,training,12,↑,left,←,0.8296777000650764,False,18
2A-AM2704M26,21,training,12,→,no_key,no_letter,-1.0,False,18
2A-AM2704M26,22,training,12,→,no_key,no_letter,-1.0,False,18
2A-AM2704M26,23,training,12,←,left,←,0.5400176998227835,True,18
2A-AM2704M26,24,training,12,↓,no_key,no_letter,-1.0,False,18
2A-AM2704M26,25,training,12,↓,left,←,0.5209053000435233,False,18
2A-AM2704M26,26,training,15,↓,left,←,0.4663086999207735,False,15
2A-AM2704M26,27,training,13,←,left,←,0.47745729982852936,True,15
2A-AM2704M26,28,experiment,12,←,no_key,no_letter,-1.0,False,15
2A-AM2704M26,29,experiment,15,←,up,↑,1.1321663004346192,False,15
2A-AM2704M26,30,experiment,14,←,no_key,no_letter,-1.0,False,15
2A-AM2704M26,31,experiment,13,→,right,→,0.47408630000427365,True,15
2A-AM2704M26,32,training,12,→,right,→,0.45378650026395917,True,16
2A-AM2704M26,33,training,13,↓,down,↓,0.452405400108546,True,16
2A-AM2704M26,34,experiment,12,→,no_key,no_letter,-1.0,False,16
2A-AM2704M26,35,experiment,13,←,no_key,no_letter,-1.0,False,16
2A-AM2704M26,36,experiment,15,→,left,←,0.5012022000737488,False,16
2A-AM2704M26,37,experiment,14,→,left,←,0.5002970001660287,False,16
2A-AM2704M26,38,training,13,→,no_key,no_letter,-1.0,False,17
2A-AM2704M26,39,training,14,→,no_key,no_letter,-1.0,False,17
2A-AM2704M26,40,experiment,15,↓,down,↓,0.905233500059694,True,17
2A-AM2704M26,41,experiment,14,→,no_key,no_letter,-1.0,False,17
2A-AM2704M26,42,experiment,12,↑,no_key,no_letter,-1.0,False,17
2A-AM2704M26,43,experiment,13,↑,down,↓,0.5581458997912705,False,17
2A-AM2704M26,44,training,12,→,left,←,0.7860432998277247,False,18
2A-AM2704M26,45,training,12,←,right,→,0.6164713003672659,False,18
2A-AM2704M26,46,experiment,13,↓,left,←,0.4339489000849426,False,18
2A-AM2704M26,47,experiment,15,→,down,↓,0.709942499641329,False,18
2A-AM2704M26,48,experiment,12,←,left,←,1.0615794998593628,True,18
2A-AM2704M26,49,experiment,14,↑,up,↑,0.715811800211668,True,18
2A-AM2704M26,50,training,12,↓,up,↑,0.5883161998353899,False,18
2A-AM2704M26,51,training,12,→,right,→,1.3003274998627603,True,18
2A-AM2704M26,52,experiment,14,←,left,←,0.5658379998058081,True,18
2A-AM2704M26,53,experiment,13,←,left,←,0.4900378999300301,True,18
2A-AM2704M26,54,experiment,15,→,right,→,0.730026500299573,True,18
2A-AM2704M26,55,experiment,12,←,no_key,no_letter,-1.0,False,18
2A-AM2704M26,56,training,12,↓,down,↓,0.5746507998555899,True,18
2A-AM2704M26,57,training,15,↓,down,↓,0.3845275999046862,True,18
2A-AM2704M26,58,experiment,12,↓,down,↓,0.3171753999777138,True,18
2A-AM2704M26,59,experiment,14,↓,down,↓,0.5816246997565031,True,18
2A-AM2704M26,60,experiment,13,↓,up,↑,0.47577530005946755,False,18
2A-AM2704M26,61,experiment,15,↑,down,↓,1.3143188999965787,False,18
2A-AM2704M26,62,training,15,↑,down,↓,0.5749013000167906,False,18
2A-AM2704M26,63,training,12,↑,down,↓,0.40042629977688193,False,18
2A-AM2704M26,64,experiment,14,→,up,↑,1.861718200147152,False,18
2A-AM2704M26,65,experiment,13,↑,up,↑,0.6179223000071943,True,18
2A-AM2704M26,66,experiment,12,→,no_key,no_letter,-1.0,False,18
2A-AM2704M26,67,experiment,15,←,up,↑,0.8882273002527654,False,18
2A-AM2704M26,68,training,12,↑,down,↓,0.687075600028038,False,18
2A-AM2704M26,69,training,13,↑,up,↑,1.0562065998092294,True,18
2A-AM2704M26,70,experiment,12,←,up,↑,0.7870897999964654,False,18
2A-AM2704M26,71,experiment,14,↑,up,↑,0.7176194000057876,True,18
2A-AM2704M26,72,experiment,13,↓,no_key,no_letter,-1.0,False,18
2A-AM2704M26,73,experiment,15,↑,up,↑,0.8242366998456419,True,18
2A-AM2704M26,74,training,14,↓,up,↑,0.4753308999352157,False,18
2A-AM2704M26,75,training,13,→,down,↓,0.46859459998086095,False,18
2A-AM2704M26,76,experiment,14,→,no_key,no_letter,-1.0,False,18
2A-AM2704M26,77,experiment,13,↓,down,↓,0.333765999879688,True,18
2A-AM2704M26,78,experiment,15,↑,up,↑,0.47452709963545203,True,18
2A-AM2704M26,79,experiment,12,↓,down,↓,0.40068589989095926,True,18
2A-AM2704M26,80,training,13,→,right,→,0.965773600153625,True,18
2A-AM2704M26,81,training,15,←,left,←,1.4390346002765,True,18
2A-AM2704M26,82,experiment,15,←,left,←,0.5631070998497307,True,18
2A-AM2704M26,83,experiment,13,↓,left,←,1.188993299845606,False,18
2A-AM2704M26,84,experiment,14,←,left,←,0.3505216999910772,True,18
2A-AM2704M26,85,experiment,12,←,right,→,0.5288097001612186,False,18
2A-AM2704M26,86,training,13,←,left,←,0.40051140030846,True,18
2A-AM2704M26,87,training,14,→,left,←,0.3171017002314329,False,18
2A-AM2704M26,88,experiment,13,→,right,→,0.31734409974887967,True,18
2A-AM2704M26,89,experiment,14,↑,no_key,no_letter,-1.0,False,18
2A-AM2704M26,90,experiment,12,↑,down,↓,1.5824600998312235,False,18
2A-AM2704M26,91,experiment,15,↓,down,↓,0.28374879993498325,True,18
