PART_ID,Trial_no,Trial_type,CSI,Stim_letter,Key_pressed,letter_choose,Rt,Corr,Stimulus Time
2A-DR1107M21,1,training,12,↑,no_key,no_letter,-1.0,False,30
2A-DR1107M21,2,training,12,←,left,←,0.9076009000418708,True,30
2A-DR1107M21,3,training,12,↑,up,↑,0.722546000033617,True,30
2A-DR1107M21,4,training,12,←,no_key,no_letter,-1.0,False,30
2A-DR1107M21,5,training,12,↓,down,↓,0.8020607000216842,True,30
2A-DR1107M21,6,training,12,↑,up,↑,0.998606099979952,True,30
2A-DR1107M21,7,training,12,↑,up,↑,0.6172368999104947,True,30
2A-DR1107M21,8,training,12,→,right,→,0.6812229000497609,True,30
2A-DR1107M21,9,training,12,↓,down,↓,1.0196386999450624,True,30
2A-DR1107M21,10,training,12,←,left,←,0.7608458999311551,True,30
2A-DR1107M21,11,training,12,→,right,→,1.024712699931115,True,30
2A-DR1107M21,12,training,12,↓,down,↓,0.7370817000046372,True,30
2A-DR1107M21,13,training,12,→,right,→,0.730525300023146,True,30
2A-DR1107M21,14,training,12,→,right,→,0.8551923000486568,True,30
2A-DR1107M21,15,training,12,→,right,→,0.6774790999479592,True,30
2A-DR1107M21,16,training,12,←,left,←,0.5978781000012532,True,18
2A-DR1107M21,17,training,12,←,no_key,no_letter,-1.0,False,18
2A-DR1107M21,18,training,12,↑,up,↑,0.6479978000279516,True,18
2A-DR1107M21,19,training,12,←,right,→,1.1664673000341281,False,18
2A-DR1107M21,20,training,12,↑,up,↑,0.9147900000680238,True,18
2A-DR1107M21,21,training,12,↓,down,↓,0.8474296999629587,True,18
2A-DR1107M21,22,training,12,←,left,←,0.5868822000920773,True,18
2A-DR1107M21,23,training,12,↑,up,↑,0.769645499996841,True,18
2A-DR1107M21,24,training,12,↑,up,↑,0.52970740001183,True,18
2A-DR1107M21,25,training,12,←,left,←,0.7298795999959111,True,18
2A-DR1107M21,26,training,13,↑,up,↑,0.7976663000881672,True,15
2A-DR1107M21,27,training,15,←,left,←,0.5776264999294654,True,15
2A-DR1107M21,28,experiment,12,↑,up,↑,1.1270061999093741,True,15
2A-DR1107M21,29,experiment,13,↓,up,↑,0.8411465999670327,False,15
2A-DR1107M21,30,experiment,15,←,left,←,0.6727358000352979,True,15
2A-DR1107M21,31,experiment,14,←,left,←,0.5101010999642313,True,15
2A-DR1107M21,32,training,14,↓,down,↓,0.6437210000585765,True,15
2A-DR1107M21,33,training,14,↑,up,↑,0.7776085000950843,True,15
2A-DR1107M21,34,experiment,15,→,right,→,0.658000799943693,True,15
2A-DR1107M21,35,experiment,12,↑,up,↑,0.8391316999914125,True,15
2A-DR1107M21,36,experiment,14,↓,down,↓,0.70352300000377,True,15
2A-DR1107M21,37,experiment,13,↓,right,→,1.0473706000484526,False,15
2A-DR1107M21,38,training,12,←,right,→,0.8867662000702694,False,15
2A-DR1107M21,39,training,14,←,left,←,0.7542952999938279,True,15
2A-DR1107M21,40,experiment,14,→,right,→,0.6977413999848068,True,15
2A-DR1107M21,41,experiment,13,↓,down,↓,0.7763193999417126,True,15
2A-DR1107M21,42,experiment,12,→,right,→,0.8199179000221193,True,15
2A-DR1107M21,43,experiment,15,↓,down,↓,0.6793210000032559,True,15
2A-DR1107M21,44,training,14,↑,up,↑,0.875802000053227,True,14
2A-DR1107M21,45,training,15,↓,down,↓,0.7667263000039384,True,14
2A-DR1107M21,46,experiment,13,↑,up,↑,0.7333732999395579,True,14
2A-DR1107M21,47,experiment,14,←,left,←,0.6132610000204295,True,14
2A-DR1107M21,48,experiment,15,→,right,→,0.6234886000165716,True,14
2A-DR1107M21,49,experiment,12,→,right,→,0.5254869000054896,True,14
2A-DR1107M21,50,training,13,←,left,←,0.5065042999340221,True,13
2A-DR1107M21,51,training,12,↓,right,→,0.5753449000185356,False,13
2A-DR1107M21,52,experiment,14,↓,up,↑,1.479824100038968,False,13
2A-DR1107M21,53,experiment,15,←,left,←,0.7484539001015946,True,13
2A-DR1107M21,54,experiment,12,↓,down,↓,0.7093501000199467,True,13
2A-DR1107M21,55,experiment,13,←,right,→,0.7289357000263408,False,13
2A-DR1107M21,56,training,15,↑,up,↑,0.7359430000651628,True,14
2A-DR1107M21,57,training,12,←,left,←,0.4802145001012832,True,14
2A-DR1107M21,58,experiment,13,→,right,→,0.5984517999459058,True,14
2A-DR1107M21,59,experiment,15,←,right,→,0.8435640999814495,False,14
2A-DR1107M21,60,experiment,14,↓,down,↓,0.5299331999849528,True,14
2A-DR1107M21,61,experiment,12,→,right,→,0.6897427999647334,True,14
2A-DR1107M21,62,training,15,↓,left,←,0.45778759999666363,False,14
2A-DR1107M21,63,training,12,↓,down,↓,1.0847596999956295,True,14
2A-DR1107M21,64,experiment,14,↑,right,→,1.4078385001048446,False,14
2A-DR1107M21,65,experiment,15,↓,down,↓,0.47404660005122423,True,14
2A-DR1107M21,66,experiment,13,↓,up,↑,0.8804585000034422,False,14
2A-DR1107M21,67,experiment,12,→,right,→,0.6058521999511868,True,14
2A-DR1107M21,68,training,14,↑,right,→,1.221932700020261,False,15
2A-DR1107M21,69,training,15,←,right,→,1.2131769999396056,False,15
2A-DR1107M21,70,experiment,15,→,right,→,0.8449320000363514,True,15
2A-DR1107M21,71,experiment,12,←,down,↓,1.7389376999344677,False,15
2A-DR1107M21,72,experiment,13,←,right,→,1.8209499000804499,False,15
2A-DR1107M21,73,experiment,14,↑,up,↑,0.6895630999933928,True,15
2A-DR1107M21,74,training,14,↓,up,↑,0.9546763000544161,False,16
2A-DR1107M21,75,training,15,←,right,→,1.314553500036709,False,16
2A-DR1107M21,76,experiment,14,↑,up,↑,0.6260754999238998,True,16
2A-DR1107M21,77,experiment,12,↓,down,↓,1.044741699937731,True,16
2A-DR1107M21,78,experiment,13,→,right,→,0.5598162000533193,True,16
2A-DR1107M21,79,experiment,15,↑,up,↑,0.5437634999398142,True,16
2A-DR1107M21,80,training,12,↓,down,↓,0.5894842999987304,True,15
2A-DR1107M21,81,training,12,↑,up,↑,0.43468190007843077,True,15
2A-DR1107M21,82,experiment,13,←,right,→,0.6784911000868306,False,15
2A-DR1107M21,83,experiment,14,↑,up,↑,0.5457301000133157,True,15
2A-DR1107M21,84,experiment,15,↑,up,↑,1.0635562000097707,True,15
2A-DR1107M21,85,experiment,12,↑,up,↑,1.0404129000380635,True,15
2A-DR1107M21,86,training,13,↓,down,↓,0.6203688000096008,True,15
2A-DR1107M21,87,training,14,→,left,←,0.9467480999883264,False,15
2A-DR1107M21,88,experiment,13,↑,up,↑,0.7383422000566497,True,15
2A-DR1107M21,89,experiment,14,↓,down,↓,0.49502619996201247,True,15
2A-DR1107M21,90,experiment,15,←,left,←,0.554804699961096,True,15
2A-DR1107M21,91,experiment,12,↓,right,→,1.2469026999315247,False,15
