PART_ID,Trial_no,Trial_type,CSI,Stim_letter,Key_pressed,letter_choose,Rt,Corr,Stimulus Time
2A-DS0909M22,1,training,12,↑,no_key,no_letter,-1.0,False,30
2A-DS0909M22,2,training,12,→,right,→,1.426590099988971,True,30
2A-DS0909M22,3,training,12,↑,up,↑,0.45099430001573637,True,30
2A-DS0909M22,4,training,12,←,left,←,0.6879572999896482,True,30
2A-DS0909M22,5,training,12,↑,up,↑,0.600508599949535,True,30
2A-DS0909M22,6,training,12,↑,up,↑,0.6006932000163943,True,30
2A-DS0909M22,7,training,12,↑,up,↑,0.7438883999711834,True,30
2A-DS0909M22,8,training,12,→,right,→,0.832662699976936,True,30
2A-DS0909M22,9,training,12,↓,up,↑,0.567152600036934,False,30
2A-DS0909M22,10,training,12,↑,up,↑,1.0765011999756098,True,30
2A-DS0909M22,11,training,12,→,right,→,1.8874456000048667,True,30
2A-DS0909M22,12,training,12,→,right,→,0.5837831000098959,True,30
2A-DS0909M22,13,training,12,←,right,→,0.5671421000151895,False,30
2A-DS0909M22,14,training,12,←,left,←,0.401170099969022,True,30
2A-DS0909M22,15,training,12,↓,down,↓,0.6338831000030041,True,30
2A-DS0909M22,16,training,12,↓,down,↓,0.9212501000147313,True,18
2A-DS0909M22,17,training,12,↑,up,↑,0.8297764000017196,True,18
2A-DS0909M22,18,training,12,←,left,←,0.7419053000048734,True,18
2A-DS0909M22,19,training,12,→,right,→,0.5661751999869011,True,18
2A-DS0909M22,20,training,12,←,left,←,1.0708923999918625,True,18
2A-DS0909M22,21,training,12,↓,right,→,0.9684437999967486,False,18
2A-DS0909M22,22,training,12,←,left,←,0.6329120000009425,True,18
2A-DS0909M22,23,training,12,←,left,←,0.7364533999934793,True,18
2A-DS0909M22,24,training,12,←,left,←,0.8710980999749154,True,18
2A-DS0909M22,25,training,12,↑,up,↑,0.9570736999739893,True,18
2A-DS0909M22,26,training,12,↑,up,↑,0.9175819999654777,True,15
2A-DS0909M22,27,training,14,→,up,↑,1.320505499956198,False,15
2A-DS0909M22,28,experiment,12,↑,up,↑,0.5700837000040337,True,15
2A-DS0909M22,29,experiment,15,↑,right,→,1.815795500006061,False,15
2A-DS0909M22,30,experiment,13,↑,down,↓,1.3411873999866657,False,15
2A-DS0909M22,31,experiment,14,↓,up,↑,1.1680635000229813,False,15
2A-DS0909M22,32,training,12,→,right,→,0.6324433000409044,True,16
2A-DS0909M22,33,training,12,↓,left,←,0.9221334999892861,False,16
2A-DS0909M22,34,experiment,14,→,right,→,0.8061128999688663,True,16
2A-DS0909M22,35,experiment,13,→,right,→,0.7766127000213601,True,16
2A-DS0909M22,36,experiment,12,→,right,→,0.5355522999889217,True,16
2A-DS0909M22,37,experiment,15,→,right,→,0.9784013999742456,True,16
2A-DS0909M22,38,training,13,→,right,→,0.4693517999839969,True,15
2A-DS0909M22,39,training,15,↓,left,←,1.0127103000413626,False,15
2A-DS0909M22,40,experiment,14,→,left,←,0.7469880999997258,False,15
2A-DS0909M22,41,experiment,12,←,up,↑,1.7396259999950416,False,15
2A-DS0909M22,42,experiment,15,→,right,→,0.8668146999552846,True,15
2A-DS0909M22,43,experiment,13,→,right,→,0.5874048999976367,True,15
2A-DS0909M22,44,training,12,→,right,→,0.7815986999776214,True,16
2A-DS0909M22,45,training,12,→,right,→,0.6513199000037275,True,16
2A-DS0909M22,46,experiment,12,↓,down,↓,0.6347667999798432,True,16
2A-DS0909M22,47,experiment,13,→,right,→,1.0789917000220157,True,16
2A-DS0909M22,48,experiment,14,→,right,→,0.5811447000014596,True,16
2A-DS0909M22,49,experiment,15,↑,up,↑,0.8229689999716356,True,16
2A-DS0909M22,50,training,13,←,left,←,0.6185162999900058,True,15
2A-DS0909M22,51,training,12,↑,right,→,1.142163799959235,False,15
2A-DS0909M22,52,experiment,14,→,left,←,0.9664042000076734,False,15
2A-DS0909M22,53,experiment,12,↓,left,←,1.4985065999790095,False,15
2A-DS0909M22,54,experiment,15,↑,up,↑,0.5544304000213742,True,15
2A-DS0909M22,55,experiment,13,←,left,←,1.0477819999796338,True,15
2A-DS0909M22,56,training,12,↑,up,↑,0.4951481999596581,True,16
2A-DS0909M22,57,training,14,←,left,←,0.612869500007946,True,16
2A-DS0909M22,58,experiment,14,←,left,←,0.46013660001335666,True,16
2A-DS0909M22,59,experiment,13,→,right,→,0.6949411000241525,True,16
2A-DS0909M22,60,experiment,12,→,right,→,0.7478697000187822,True,16
2A-DS0909M22,61,experiment,15,↓,down,↓,0.9670102999662049,True,16
2A-DS0909M22,62,training,14,←,up,↑,1.1249266000231728,False,15
2A-DS0909M22,63,training,12,↓,down,↓,1.4681934000109322,True,15
2A-DS0909M22,64,experiment,15,↓,down,↓,1.3928767000325024,True,15
2A-DS0909M22,65,experiment,13,→,right,→,0.6392959000077099,True,15
2A-DS0909M22,66,experiment,14,→,left,←,0.9562781000277027,False,15
2A-DS0909M22,67,experiment,12,→,right,→,1.3546757000149228,True,15
2A-DS0909M22,68,training,15,←,right,→,0.6271814000210725,False,15
2A-DS0909M22,69,training,12,↑,left,←,0.8150286999880336,False,15
2A-DS0909M22,70,experiment,14,→,right,→,0.3671837000292726,True,15
2A-DS0909M22,71,experiment,15,←,left,←,0.5059813000261784,True,15
2A-DS0909M22,72,experiment,12,←,left,←,0.7162181999883614,True,15
2A-DS0909M22,73,experiment,13,↑,up,↑,0.9135289000114426,True,15
2A-DS0909M22,74,training,15,↓,down,↓,0.6573935999767855,True,14
2A-DS0909M22,75,training,14,↓,right,→,0.9469658000161871,False,14
2A-DS0909M22,76,experiment,14,→,down,↓,1.2488647000282072,False,14
2A-DS0909M22,77,experiment,15,↓,down,↓,0.7121333000250161,True,14
2A-DS0909M22,78,experiment,12,→,right,→,0.5454236999503337,True,14
2A-DS0909M22,79,experiment,13,←,left,←,0.5239010999794118,True,14
2A-DS0909M22,80,training,12,↑,right,→,1.0183547000051476,False,14
2A-DS0909M22,81,training,15,↑,up,↑,0.845475600042846,True,14
2A-DS0909M22,82,experiment,14,→,left,←,0.9606822000350803,False,14
2A-DS0909M22,83,experiment,12,↓,down,↓,0.4800567000056617,True,14
2A-DS0909M22,84,experiment,15,↓,down,↓,0.42799290001858026,True,14
2A-DS0909M22,85,experiment,13,↑,left,←,0.9522932000108995,False,14
2A-DS0909M22,86,training,15,→,right,→,0.6951762000098825,True,15
2A-DS0909M22,87,training,13,↓,down,↓,0.5141566999955103,True,15
2A-DS0909M22,88,experiment,13,↓,down,↓,0.5009662000229582,True,15
2A-DS0909M22,89,experiment,14,↓,down,↓,0.6498262000386603,True,15
2A-DS0909M22,90,experiment,15,→,left,←,0.9381541999755427,False,15
2A-DS0909M22,91,experiment,12,→,right,→,0.612053900025785,True,15
