PART_ID,Trial_no,Trial_type,CSI,Stim_letter,Key_pressed,letter_choose,Rt,Corr,Stimulus Time
2A-JO1008M27,1,training,12,←,no_key,no_letter,-1.0,False,30
2A-JO1008M27,2,training,12,←,left,←,1.0626752998214215,True,30
2A-JO1008M27,3,training,12,←,left,←,0.7082781998906285,True,30
2A-JO1008M27,4,training,12,→,right,→,0.7164036999456584,True,30
2A-JO1008M27,5,training,12,→,right,→,0.8803934999741614,True,30
2A-JO1008M27,6,training,12,←,left,←,0.8344717998988926,True,30
2A-JO1008M27,7,training,12,↑,up,↑,0.7770871999673545,True,30
2A-JO1008M27,8,training,12,→,right,→,0.72367769991979,True,30
2A-JO1008M27,9,training,12,↓,no_key,no_letter,-1.0,False,30
2A-JO1008M27,10,training,12,→,right,→,0.7030732999555767,True,30
2A-JO1008M27,11,training,12,↑,up,↑,0.7323841000907123,True,30
2A-JO1008M27,12,training,12,↓,down,↓,0.7360818998422474,True,30
2A-JO1008M27,13,training,12,→,right,→,0.830135100055486,True,30
2A-JO1008M27,14,training,12,→,right,→,0.7971399000380188,True,30
2A-JO1008M27,15,training,12,↓,down,↓,0.6004206000361592,True,30
2A-JO1008M27,16,training,12,→,right,→,0.6351583001669496,True,18
2A-JO1008M27,17,training,12,←,left,←,0.722525600111112,True,18
2A-JO1008M27,18,training,12,↓,down,↓,0.6020920001901686,True,18
2A-JO1008M27,19,training,12,↑,up,↑,0.869769399985671,True,18
2A-JO1008M27,20,training,12,↑,up,↑,0.5737781999632716,True,18
2A-JO1008M27,21,training,12,↑,up,↑,0.6673725999426097,True,18
2A-JO1008M27,22,training,12,↓,no_key,no_letter,-1.0,False,18
2A-JO1008M27,23,training,12,↓,right,→,1.1024665001314133,False,18
2A-JO1008M27,24,training,12,↓,no_key,no_letter,-1.0,False,18
2A-JO1008M27,25,training,12,↓,down,↓,0.5240737001877278,True,18
2A-JO1008M27,26,training,13,↓,right,→,1.1578708998858929,False,15
2A-JO1008M27,27,training,12,↓,left,←,0.8107231000903994,False,15
2A-JO1008M27,28,experiment,14,←,down,↓,0.6797247000504285,False,15
2A-JO1008M27,29,experiment,12,→,right,→,0.7840288998559117,True,15
2A-JO1008M27,30,experiment,15,↓,left,←,0.808330399915576,False,15
2A-JO1008M27,31,experiment,13,↓,down,↓,0.44139489997178316,True,15
2A-JO1008M27,32,training,14,↓,right,→,0.963541200151667,False,16
2A-JO1008M27,33,training,12,←,left,←,0.4493575000669807,True,16
2A-JO1008M27,34,experiment,12,→,right,→,0.46618310012854636,True,16
2A-JO1008M27,35,experiment,13,←,left,←,0.43709559994749725,True,16
2A-JO1008M27,36,experiment,14,↑,up,↑,0.9575120001100004,True,16
2A-JO1008M27,37,experiment,15,←,right,→,1.6314818998798728,False,16
2A-JO1008M27,38,training,15,↑,right,→,0.7782477999571711,False,16
2A-JO1008M27,39,training,15,→,right,→,0.6341524000745267,True,16
2A-JO1008M27,40,experiment,14,↓,down,↓,0.7031141000334173,True,16
2A-JO1008M27,41,experiment,15,↑,up,↑,0.6327160999644548,True,16
2A-JO1008M27,42,experiment,12,↓,down,↓,0.5481847999617457,True,16
2A-JO1008M27,43,experiment,13,↑,up,↑,0.7920211998280138,True,16
2A-JO1008M27,44,training,14,→,right,→,0.7070003000553697,True,15
2A-JO1008M27,45,training,14,←,left,←,0.4768133999314159,True,15
2A-JO1008M27,46,experiment,13,↑,up,↑,0.5581032000482082,True,15
2A-JO1008M27,47,experiment,15,↑,up,↑,0.5361764000263065,True,15
2A-JO1008M27,48,experiment,14,↓,down,↓,0.46363710006698966,True,15
2A-JO1008M27,49,experiment,12,→,right,→,0.4851267000194639,True,15
2A-JO1008M27,50,training,15,←,left,←,0.6665978999808431,True,14
2A-JO1008M27,51,training,15,↓,right,→,0.6408876001369208,False,14
2A-JO1008M27,52,experiment,15,↓,no_key,no_letter,-1.0,False,14
2A-JO1008M27,53,experiment,14,→,up,↑,0.08457760000601411,False,14
2A-JO1008M27,54,experiment,12,↓,right,→,0.8928813999518752,False,14
2A-JO1008M27,55,experiment,13,↑,up,↑,0.467761900043115,True,14
2A-JO1008M27,56,training,14,→,right,→,0.4484089999459684,True,15
2A-JO1008M27,57,training,14,←,left,←,0.4807800999842584,True,15
2A-JO1008M27,58,experiment,12,↑,down,↓,1.0798035999760032,False,15
2A-JO1008M27,59,experiment,14,←,up,↑,0.9442767000291497,False,15
2A-JO1008M27,60,experiment,13,↑,up,↑,0.5735883999150246,True,15
2A-JO1008M27,61,experiment,15,↓,down,↓,1.1646200001705438,True,15
2A-JO1008M27,62,training,15,↓,down,↓,0.5582280999515206,True,16
2A-JO1008M27,63,training,13,↑,up,↑,0.9743753001093864,True,16
2A-JO1008M27,64,experiment,12,↓,down,↓,0.8336521999444813,True,16
2A-JO1008M27,65,experiment,13,→,right,→,0.33381840004585683,True,16
2A-JO1008M27,66,experiment,14,←,left,←,0.4358703999314457,True,16
2A-JO1008M27,67,experiment,15,→,right,→,0.5507577999960631,True,16
2A-JO1008M27,68,training,13,←,left,←,0.5335419999901205,True,15
2A-JO1008M27,69,training,12,↓,up,↑,0.921377900056541,False,15
2A-JO1008M27,70,experiment,14,↑,right,→,0.971471100114286,False,15
2A-JO1008M27,71,experiment,15,↑,up,↑,0.5816444999072701,True,15
2A-JO1008M27,72,experiment,12,←,down,↓,0.8744973998982459,False,15
2A-JO1008M27,73,experiment,13,←,left,←,0.6546243999619037,True,15
2A-JO1008M27,74,training,15,←,left,←,0.551303300075233,True,16
2A-JO1008M27,75,training,15,→,right,→,0.4809111999347806,True,16
2A-JO1008M27,76,experiment,12,↓,down,↓,0.4340117999818176,True,16
2A-JO1008M27,77,experiment,14,→,up,↑,1.1579261999577284,False,16
2A-JO1008M27,78,experiment,13,↓,up,↑,1.0011665998026729,False,16
2A-JO1008M27,79,experiment,15,←,left,←,0.6353441998362541,True,16
2A-JO1008M27,80,training,13,↓,up,↑,0.8354943001177162,False,17
2A-JO1008M27,81,training,12,↑,left,←,0.856736599933356,False,17
2A-JO1008M27,82,experiment,13,→,right,→,0.805295400088653,True,17
2A-JO1008M27,83,experiment,15,↓,down,↓,0.853298099944368,True,17
2A-JO1008M27,84,experiment,12,↓,down,↓,0.4848458000924438,True,17
2A-JO1008M27,85,experiment,14,↓,down,↓,0.5259338000323623,True,17
2A-JO1008M27,86,training,13,↓,down,↓,0.5166854001581669,True,16
2A-JO1008M27,87,training,12,←,right,→,0.6945111998356879,False,16
2A-JO1008M27,88,experiment,12,←,left,←,0.45894149993546307,True,16
2A-JO1008M27,89,experiment,15,↑,up,↑,0.978788899956271,True,16
2A-JO1008M27,90,experiment,14,↓,down,↓,0.46365930000320077,True,16
2A-JO1008M27,91,experiment,13,←,left,←,0.4919744001235813,True,16
