PART_ID,Trial_no,Trial_type,CSI,Stim_letter,Key_pressed,letter_choose,Rt,Corr,Stimulus Time
2A-JG2005K20,1,training,12,↓,no_key,no_letter,-1.0,False,30
2A-JG2005K20,2,training,12,↑,up,↑,0.5673172001261264,True,30
2A-JG2005K20,3,training,12,↓,down,↓,0.7036134998779744,True,30
2A-JG2005K20,4,training,12,↓,down,↓,0.6178027000278234,True,30
2A-JG2005K20,5,training,12,↓,down,↓,0.6339436999987811,True,30
2A-JG2005K20,6,training,12,↓,down,↓,0.6173397998791188,True,30
2A-JG2005K20,7,training,12,↓,up,↑,0.4840565000195056,False,30
2A-JG2005K20,8,training,12,↓,down,↓,0.6174292000941932,True,30
2A-JG2005K20,9,training,12,→,right,→,0.7631817001383752,True,30
2A-JG2005K20,10,training,12,←,left,←,0.6858537001535296,True,30
2A-JG2005K20,11,training,12,→,right,→,0.674352299887687,True,30
2A-JG2005K20,12,training,12,←,left,←,0.6171532000880688,True,30
2A-JG2005K20,13,training,12,←,left,←,0.5671446998603642,True,30
2A-JG2005K20,14,training,12,→,right,→,0.6340115000493824,True,30
2A-JG2005K20,15,training,12,↓,down,↓,0.7007337999530137,True,30
2A-JG2005K20,16,training,12,↑,up,↑,0.7571375998668373,True,18
2A-JG2005K20,17,training,12,←,right,→,0.6574570999946445,False,18
2A-JG2005K20,18,training,12,↑,up,↑,0.770901900017634,True,18
2A-JG2005K20,19,training,12,→,right,→,0.6026794998906553,True,18
2A-JG2005K20,20,training,12,↑,up,↑,0.7511144999880344,True,18
2A-JG2005K20,21,training,12,↑,up,↑,0.5961694999132305,True,18
2A-JG2005K20,22,training,12,←,left,←,0.6066892000380903,True,18
2A-JG2005K20,23,training,12,→,right,→,0.5077754999510944,True,18
2A-JG2005K20,24,training,12,↓,left,←,0.7039872999303043,False,18
2A-JG2005K20,25,training,12,↓,down,↓,0.6346422000788152,True,18
2A-JG2005K20,26,training,14,←,right,→,0.6265600000042468,False,15
2A-JG2005K20,27,training,14,↑,up,↑,1.4495682001579553,True,15
2A-JG2005K20,28,experiment,15,↓,up,↑,0.6992635000497103,False,15
2A-JG2005K20,29,experiment,14,→,right,→,0.5931995001155883,True,15
2A-JG2005K20,30,experiment,12,↑,up,↑,0.6587734001222998,True,15
2A-JG2005K20,31,experiment,13,↑,up,↑,0.7405846000183374,True,15
2A-JG2005K20,32,training,14,↓,down,↓,0.6931096999906003,True,15
2A-JG2005K20,33,training,13,←,right,→,0.5471684001386166,False,15
2A-JG2005K20,34,experiment,12,→,right,→,0.5734494000207633,True,15
2A-JG2005K20,35,experiment,14,→,right,→,0.5270956000313163,True,15
2A-JG2005K20,36,experiment,13,→,right,→,0.7996298999059945,True,15
2A-JG2005K20,37,experiment,15,→,right,→,0.5710815999191254,True,15
2A-JG2005K20,38,training,13,←,right,→,0.898824900155887,False,14
2A-JG2005K20,39,training,15,↓,down,↓,0.665752099826932,True,14
2A-JG2005K20,40,experiment,14,→,right,→,0.6202913001179695,True,14
2A-JG2005K20,41,experiment,15,↑,up,↑,0.6113823999185115,True,14
2A-JG2005K20,42,experiment,12,←,left,←,0.6274012001231313,True,14
2A-JG2005K20,43,experiment,13,↓,down,↓,0.6690368999261409,True,14
2A-JG2005K20,44,training,14,←,right,→,0.7322795998770744,False,13
2A-JG2005K20,45,training,12,←,right,→,0.5452491000760347,False,13
2A-JG2005K20,46,experiment,15,→,left,←,0.7956672001164407,False,13
2A-JG2005K20,47,experiment,12,→,right,→,0.5901230000890791,True,13
2A-JG2005K20,48,experiment,13,←,left,←,0.626056999899447,True,13
2A-JG2005K20,49,experiment,14,↑,up,↑,0.6584306999575347,True,13
2A-JG2005K20,50,training,13,←,left,←,0.8463455999735743,True,13
2A-JG2005K20,51,training,14,←,left,←,0.620737100020051,True,13
2A-JG2005K20,52,experiment,12,↑,up,↑,0.7348444999661297,True,13
2A-JG2005K20,53,experiment,13,←,right,→,0.7078016998711973,False,13
2A-JG2005K20,54,experiment,15,↑,right,→,0.6346628000028431,False,13
2A-JG2005K20,55,experiment,14,↑,up,↑,0.5901997000910342,True,13
2A-JG2005K20,56,training,12,←,left,←,0.6477596000768244,True,14
2A-JG2005K20,57,training,14,→,left,←,0.6450686999596655,False,14
2A-JG2005K20,58,experiment,13,←,left,←,0.6167038001585752,True,14
2A-JG2005K20,59,experiment,15,↓,down,↓,0.7231251001358032,True,14
2A-JG2005K20,60,experiment,12,↑,up,↑,0.7104267999529839,True,14
2A-JG2005K20,61,experiment,14,←,left,←,0.8422683000098914,True,14
2A-JG2005K20,62,training,14,←,left,←,0.5328117997851223,True,13
2A-JG2005K20,63,training,15,↑,up,↑,0.537599999923259,True,13
2A-JG2005K20,64,experiment,12,←,left,←,0.5594550999812782,True,13
2A-JG2005K20,65,experiment,15,↑,left,←,0.6806667998898774,False,13
2A-JG2005K20,66,experiment,13,→,right,→,0.5906750001013279,True,13
2A-JG2005K20,67,experiment,14,↑,up,↑,0.604578600032255,True,13
2A-JG2005K20,68,training,14,↑,up,↑,0.5661593999247998,True,13
2A-JG2005K20,69,training,13,←,left,←,0.5802915000822395,True,13
2A-JG2005K20,70,experiment,12,←,left,←,0.64434659993276,True,13
2A-JG2005K20,71,experiment,15,→,left,←,0.5962984000798315,False,13
2A-JG2005K20,72,experiment,14,↑,up,↑,0.5507356999441981,True,13
2A-JG2005K20,73,experiment,13,→,right,→,0.7646604999899864,True,13
2A-JG2005K20,74,training,14,←,left,←,0.5906072000507265,True,13
2A-JG2005K20,75,training,14,→,right,→,0.5034941001795232,True,13
2A-JG2005K20,76,experiment,15,↓,down,↓,0.6861630000639707,True,13
2A-JG2005K20,77,experiment,13,→,right,→,0.5036034998483956,True,13
2A-JG2005K20,78,experiment,14,↓,up,↑,0.7998265000060201,False,13
2A-JG2005K20,79,experiment,12,←,right,→,0.58855009987019,False,13
2A-JG2005K20,80,training,12,←,left,←,0.524724000133574,True,14
2A-JG2005K20,81,training,13,→,right,→,0.578401300124824,True,14
2A-JG2005K20,82,experiment,14,↓,down,↓,0.6615762999281287,True,14
2A-JG2005K20,83,experiment,13,↓,down,↓,0.6365730001125485,True,14
2A-JG2005K20,84,experiment,12,→,right,→,0.5185766001231968,True,14
2A-JG2005K20,85,experiment,15,↑,up,↑,0.7173524999525398,True,14
2A-JG2005K20,86,training,12,↑,up,↑,0.5386130998376757,True,13
2A-JG2005K20,87,training,14,↑,down,↓,0.8348934000823647,False,13
2A-JG2005K20,88,experiment,14,↓,up,↑,0.8760726999025792,False,13
2A-JG2005K20,89,experiment,13,↑,up,↑,0.4706864000763744,True,13
2A-JG2005K20,90,experiment,12,→,right,→,0.6550583001226187,True,13
2A-JG2005K20,91,experiment,15,↓,left,←,0.7028628000989556,False,13
