PART_ID,Trial_no,Trial_type,CSI,Stim_letter,Key_pressed,letter_choose,Rt,Corr,Stimulus Time
2A-KB0511K29,1,training,12,→,no_key,no_letter,-1.0,False,30
2A-KB0511K29,2,training,12,←,left,←,0.9994651000015438,True,30
2A-KB0511K29,3,training,12,↑,up,↑,1.546951700001955,True,30
2A-KB0511K29,4,training,12,↑,up,↑,1.061982199898921,True,30
2A-KB0511K29,5,training,12,→,left,←,1.768424000008963,False,30
2A-KB0511K29,6,training,12,←,left,←,1.366905799950473,True,30
2A-KB0511K29,7,training,12,→,right,→,1.2908634999766946,True,30
2A-KB0511K29,8,training,12,→,right,→,0.9738262000028044,True,30
2A-KB0511K29,9,training,12,←,left,←,1.4293542000232264,True,30
2A-KB0511K29,10,training,12,→,right,→,1.0024195000296459,True,30
2A-KB0511K29,11,training,12,↑,up,↑,1.2031405000016093,True,30
2A-KB0511K29,12,training,12,→,right,→,1.149620799929835,True,30
2A-KB0511K29,13,training,12,↓,down,↓,1.0218692000489682,True,30
2A-KB0511K29,14,training,12,←,left,←,1.218510999926366,True,30
2A-KB0511K29,15,training,12,↓,down,↓,1.1384848000016063,True,30
2A-KB0511K29,16,training,12,←,left,←,1.3500267000636086,True,18
2A-KB0511K29,17,training,12,←,left,←,1.1952408000361174,True,18
2A-KB0511K29,18,training,12,↓,down,↓,1.196747999987565,True,18
2A-KB0511K29,19,training,12,↓,up,↑,0.9967836000723764,False,18
2A-KB0511K29,20,training,12,↓,down,↓,1.0383211999433115,True,18
2A-KB0511K29,21,training,12,←,down,↓,1.38953499996569,False,18
2A-KB0511K29,22,training,12,→,right,→,1.167202700045891,True,18
2A-KB0511K29,23,training,12,↓,left,←,1.6008912000106648,False,18
2A-KB0511K29,24,training,12,→,left,←,1.3103307000128552,False,18
2A-KB0511K29,25,training,12,↑,up,↑,1.0627840999513865,True,18
2A-KB0511K29,26,training,13,↓,down,↓,0.8867409999947995,True,15
2A-KB0511K29,27,training,13,←,left,←,1.1384396000066772,True,15
2A-KB0511K29,28,experiment,15,↑,down,↓,0.9295305000850931,False,15
2A-KB0511K29,29,experiment,14,↓,right,→,1.4749041999457404,False,15
2A-KB0511K29,30,experiment,12,↓,down,↓,0.9298460999270901,True,15
2A-KB0511K29,31,experiment,13,↑,right,→,1.3143817000091076,False,15
2A-KB0511K29,32,training,15,↑,down,↓,1.2550755999982357,False,16
2A-KB0511K29,33,training,15,↓,down,↓,0.9881514000007883,True,16
2A-KB0511K29,34,experiment,13,↓,left,←,1.6325319999596104,False,16
2A-KB0511K29,35,experiment,15,↓,right,→,1.414781800005585,False,16
2A-KB0511K29,36,experiment,14,←,right,→,1.0293768999399617,False,16
2A-KB0511K29,37,experiment,12,←,left,←,1.0595144999679178,True,16
2A-KB0511K29,38,training,12,↑,up,↑,0.9104743000352755,True,17
2A-KB0511K29,39,training,14,↑,up,↑,0.9614995999727398,True,17
2A-KB0511K29,40,experiment,15,→,right,→,0.9384370999177918,True,17
2A-KB0511K29,41,experiment,13,→,left,←,1.3210860000690445,False,17
2A-KB0511K29,42,experiment,14,↑,up,↑,1.193185600102879,True,17
2A-KB0511K29,43,experiment,12,→,right,→,0.9771915000164881,True,17
2A-KB0511K29,44,training,14,→,right,→,1.073090699966997,True,17
2A-KB0511K29,45,training,13,↑,right,→,1.1715877000242472,False,17
2A-KB0511K29,46,experiment,14,↑,right,→,1.1181387000251561,False,17
2A-KB0511K29,47,experiment,15,←,left,←,1.4810099001042545,True,17
2A-KB0511K29,48,experiment,13,→,left,←,1.36338610004168,False,17
2A-KB0511K29,49,experiment,12,→,left,←,1.1509776999009773,False,17
2A-KB0511K29,50,training,13,←,left,←,0.9652920999797061,True,18
2A-KB0511K29,51,training,13,↓,down,↓,0.9704001999925822,True,18
2A-KB0511K29,52,experiment,15,←,left,←,1.1045477000297979,True,18
2A-KB0511K29,53,experiment,14,↑,left,←,1.5198107999749482,False,18
2A-KB0511K29,54,experiment,13,↑,up,↑,0.9375518000451848,True,18
2A-KB0511K29,55,experiment,12,↑,down,↓,1.0140337999910116,False,18
2A-KB0511K29,56,training,13,←,left,←,1.4381888000061736,True,18
2A-KB0511K29,57,training,14,↑,left,←,1.4628825000254437,False,18
2A-KB0511K29,58,experiment,14,↑,up,↑,0.8752894999925047,True,18
2A-KB0511K29,59,experiment,15,↑,up,↑,1.129395200056024,True,18
2A-KB0511K29,60,experiment,12,↓,down,↓,0.9185699999798089,True,18
2A-KB0511K29,61,experiment,13,↑,up,↑,1.022091899998486,True,18
2A-KB0511K29,62,training,13,↓,down,↓,0.9875526999821886,True,17
2A-KB0511K29,63,training,12,↑,down,↓,1.2610983999911696,False,17
2A-KB0511K29,64,experiment,13,←,right,→,1.0421468999702483,False,17
2A-KB0511K29,65,experiment,14,↓,down,↓,1.3999079000204802,True,17
2A-KB0511K29,66,experiment,12,↓,down,↓,1.257211200078018,True,17
2A-KB0511K29,67,experiment,15,↑,up,↑,0.9989485000260174,True,17
2A-KB0511K29,68,training,14,→,right,→,1.0757855999981984,True,17
2A-KB0511K29,69,training,13,↓,down,↓,0.9497262999648228,True,17
2A-KB0511K29,70,experiment,14,↓,down,↓,1.3037376999855042,True,17
2A-KB0511K29,71,experiment,12,↑,down,↓,1.2097388000693172,False,17
2A-KB0511K29,72,experiment,15,←,right,→,1.060836200020276,False,17
2A-KB0511K29,73,experiment,13,↓,down,↓,0.8611341000068933,True,17
2A-KB0511K29,74,training,12,←,left,←,0.9806538999546319,True,18
2A-KB0511K29,75,training,13,↓,right,→,1.1327051999978721,False,18
2A-KB0511K29,76,experiment,13,↓,down,↓,0.9353758000070229,True,18
2A-KB0511K29,77,experiment,12,→,up,↑,1.2501685000024736,False,18
2A-KB0511K29,78,experiment,14,←,left,←,0.9782732999883592,True,18
2A-KB0511K29,79,experiment,15,←,left,←,1.3145762999774888,True,18
2A-KB0511K29,80,training,12,←,left,←,1.3506470000138506,True,18
2A-KB0511K29,81,training,12,→,left,←,1.0962763000279665,False,18
2A-KB0511K29,82,experiment,14,↓,right,→,1.1398737000999972,False,18
2A-KB0511K29,83,experiment,12,↓,down,↓,0.910762200015597,True,18
2A-KB0511K29,84,experiment,13,↑,up,↑,1.2379102999111637,True,18
2A-KB0511K29,85,experiment,15,←,left,←,1.1818824999500066,True,18
2A-KB0511K29,86,training,14,↓,down,↓,0.9142037999117747,True,18
2A-KB0511K29,87,training,13,↓,down,↓,0.9061197999399155,True,18
2A-KB0511K29,88,experiment,12,←,right,→,1.096147199976258,False,18
2A-KB0511K29,89,experiment,15,←,left,←,0.880771900061518,True,18
2A-KB0511K29,90,experiment,13,↓,down,↓,0.8882147000404075,True,18
2A-KB0511K29,91,experiment,14,→,down,↓,1.0652885999297723,False,18
