PART_ID,Trial_no,Trial_type,CSI,Stim_letter,Key_pressed,letter_choose,Rt,Corr,Stimulus Time
2A-LM2202M27,1,training,12,←,no_key,no_letter,-1.0,False,30
2A-LM2202M27,2,training,12,←,left,←,1.398654800024815,True,30
2A-LM2202M27,3,training,12,←,left,←,0.6866965999361128,True,30
2A-LM2202M27,4,training,12,↑,up,↑,0.8405482999514788,True,30
2A-LM2202M27,5,training,12,↑,up,↑,0.695500300033018,True,30
2A-LM2202M27,6,training,12,←,left,←,0.5501963999122381,True,30
2A-LM2202M27,7,training,12,→,right,→,0.5504765000659972,True,30
2A-LM2202M27,8,training,12,←,left,←,0.4344369999598712,True,30
2A-LM2202M27,9,training,12,←,down,↓,1.801654199953191,False,30
2A-LM2202M27,10,training,12,↓,down,↓,2.0542524000629783,True,30
2A-LM2202M27,11,training,12,→,right,→,0.6958282999694347,True,30
2A-LM2202M27,12,training,12,↑,left,←,0.751281899982132,False,30
2A-LM2202M27,13,training,12,↑,no_key,no_letter,-1.0,False,30
2A-LM2202M27,14,training,12,↓,left,←,1.7005223999731243,False,30
2A-LM2202M27,15,training,12,↑,no_key,no_letter,-1.0,False,30
2A-LM2202M27,16,training,12,→,left,←,0.9591782001079991,False,18
2A-LM2202M27,17,training,12,←,no_key,no_letter,-1.0,False,18
2A-LM2202M27,18,training,12,↑,up,↑,1.6664502000203356,True,18
2A-LM2202M27,19,training,12,→,down,↓,1.9413280999287963,False,18
2A-LM2202M27,20,training,12,↓,no_key,no_letter,-1.0,False,18
2A-LM2202M27,21,training,12,→,right,→,1.0198211000533774,True,18
2A-LM2202M27,22,training,12,↓,no_key,no_letter,-1.0,False,18
2A-LM2202M27,23,training,12,↓,right,→,1.847808500053361,False,18
2A-LM2202M27,24,training,12,→,no_key,no_letter,-1.0,False,18
2A-LM2202M27,25,training,12,→,right,→,0.7424405999481678,True,18
2A-LM2202M27,26,training,15,←,up,↑,1.6438952999887988,False,15
2A-LM2202M27,27,training,12,→,no_key,no_letter,-1.0,False,15
2A-LM2202M27,28,experiment,13,↓,left,←,1.0434252000413835,False,15
2A-LM2202M27,29,experiment,12,→,left,←,1.7542199000017717,False,15
2A-LM2202M27,30,experiment,14,←,left,←,0.587841899949126,True,15
2A-LM2202M27,31,experiment,15,↑,up,↑,0.5388753999723122,True,15
2A-LM2202M27,32,training,15,↑,up,↑,0.9922648000065237,True,16
2A-LM2202M27,33,training,13,↑,up,↑,0.515038299956359,True,16
2A-LM2202M27,34,experiment,12,↑,up,↑,1.0385014000348747,True,16
2A-LM2202M27,35,experiment,15,→,right,→,0.6598707999801263,True,16
2A-LM2202M27,36,experiment,14,↓,right,→,0.8365488999988884,False,16
2A-LM2202M27,37,experiment,13,↑,left,←,0.8762457999400795,False,16
2A-LM2202M27,38,training,15,↑,up,↑,0.8860868000192568,True,17
2A-LM2202M27,39,training,15,←,left,←,1.3511010999791324,True,17
2A-LM2202M27,40,experiment,14,→,right,→,0.5753608000231907,True,17
2A-LM2202M27,41,experiment,15,↓,down,↓,0.8278631999855861,True,17
2A-LM2202M27,42,experiment,13,←,no_key,no_letter,-1.0,False,17
2A-LM2202M27,43,experiment,12,↓,right,→,1.1837435000343248,False,17
2A-LM2202M27,44,training,14,↑,up,↑,0.7020460000494495,True,18
2A-LM2202M27,45,training,14,→,up,↑,0.977331200032495,False,18
2A-LM2202M27,46,experiment,13,↑,up,↑,0.9450267000356689,True,18
2A-LM2202M27,47,experiment,14,↓,down,↓,0.7163657000055537,True,18
2A-LM2202M27,48,experiment,12,→,left,←,0.987066000001505,False,18
2A-LM2202M27,49,experiment,15,→,right,→,1.6603747999761254,True,18
2A-LM2202M27,50,training,12,→,down,↓,1.5665238000219688,False,18
2A-LM2202M27,51,training,15,←,left,←,0.7631177000002936,True,18
2A-LM2202M27,52,experiment,12,↑,right,→,0.8923490000888705,False,18
2A-LM2202M27,53,experiment,15,↓,down,↓,0.8662859000032768,True,18
2A-LM2202M27,54,experiment,14,→,right,→,0.8466197999659926,True,18
2A-LM2202M27,55,experiment,13,↑,right,→,0.6919797000009567,False,18
2A-LM2202M27,56,training,15,↓,up,↑,0.8129477999173105,False,18
2A-LM2202M27,57,training,15,→,left,←,0.9495998999336734,False,18
2A-LM2202M27,58,experiment,12,↑,up,↑,0.634480300010182,True,18
2A-LM2202M27,59,experiment,13,↑,up,↑,0.6518119000829756,True,18
2A-LM2202M27,60,experiment,15,←,left,←,0.5456808999879286,True,18
2A-LM2202M27,61,experiment,14,→,right,→,0.5279154001036659,True,18
2A-LM2202M27,62,training,14,←,right,→,0.6390005999710411,False,17
2A-LM2202M27,63,training,14,↑,up,↑,0.7012808000436053,True,17
2A-LM2202M27,64,experiment,13,↑,up,↑,0.46905379998497665,True,17
2A-LM2202M27,65,experiment,15,→,up,↑,0.9354521000059322,False,17
2A-LM2202M27,66,experiment,14,←,left,←,0.5793143000919372,True,17
2A-LM2202M27,67,experiment,12,↓,up,↑,1.9471704999450594,False,17
2A-LM2202M27,68,training,13,→,left,←,0.747468699933961,False,18
2A-LM2202M27,69,training,13,→,right,→,0.6329194999998435,True,18
2A-LM2202M27,70,experiment,14,→,right,→,0.7959889000048861,True,18
2A-LM2202M27,71,experiment,15,→,right,→,0.7409330999944359,True,18
2A-LM2202M27,72,experiment,12,↑,right,→,0.7311771999811754,False,18
2A-LM2202M27,73,experiment,13,→,right,→,0.7032679000403732,True,18
2A-LM2202M27,74,training,12,↓,down,↓,0.7744267999660224,True,18
2A-LM2202M27,75,training,14,←,left,←,0.7943410999141634,True,18
2A-LM2202M27,76,experiment,13,↑,up,↑,0.6900228000013158,True,18
2A-LM2202M27,77,experiment,12,→,right,→,0.4913638000143692,True,18
2A-LM2202M27,78,experiment,15,↑,up,↑,1.0080449000233784,True,18
2A-LM2202M27,79,experiment,14,↓,up,↑,0.8759868999477476,False,18
2A-LM2202M27,80,training,15,←,left,←,0.6134654000634328,True,18
2A-LM2202M27,81,training,12,→,right,→,0.7257335999747738,True,18
2A-LM2202M27,82,experiment,14,←,left,←,0.6277169999666512,True,18
2A-LM2202M27,83,experiment,12,↑,up,↑,0.6266814999980852,True,18
2A-LM2202M27,84,experiment,13,↓,down,↓,0.7143122999696061,True,18
2A-LM2202M27,85,experiment,15,↑,up,↑,0.6600678999675438,True,18
2A-LM2202M27,86,training,12,↓,down,↓,0.639488699962385,True,17
2A-LM2202M27,87,training,14,←,left,←,0.5036178999580443,True,17
2A-LM2202M27,88,experiment,15,↓,left,←,0.482272700057365,False,17
2A-LM2202M27,89,experiment,14,→,right,→,0.5712435999885201,True,17
2A-LM2202M27,90,experiment,13,←,down,↓,0.8660259998869151,False,17
2A-LM2202M27,91,experiment,12,↓,right,→,0.8161313000600785,False,17
