PART_ID,Trial_no,Trial_type,CSI,Stim_letter,Key_pressed,letter_choose,Rt,Corr,Stimulus Time
2A-MR0304M26,1,training,12,←,no_key,no_letter,-1.0,False,30
2A-MR0304M26,2,training,12,↓,no_key,no_letter,-1.0,False,30
2A-MR0304M26,3,training,12,→,right,→,1.4676851000112947,True,30
2A-MR0304M26,4,training,12,↑,up,↑,2.023157599993283,True,30
2A-MR0304M26,5,training,12,↑,up,↑,1.054291699983878,True,30
2A-MR0304M26,6,training,12,↓,down,↓,0.9504604999965522,True,30
2A-MR0304M26,7,training,12,→,right,→,1.008202099998016,True,30
2A-MR0304M26,8,training,12,↑,up,↑,0.9066836000129115,True,30
2A-MR0304M26,9,training,12,←,left,←,1.0596454000042286,True,30
2A-MR0304M26,10,training,12,←,left,←,0.8377421000041068,True,30
2A-MR0304M26,11,training,12,→,left,←,0.6172578999830876,False,30
2A-MR0304M26,12,training,12,↑,up,↑,0.6907272000098601,True,30
2A-MR0304M26,13,training,12,→,right,→,0.7526657000125851,True,30
2A-MR0304M26,14,training,12,→,right,→,0.7298897000146098,True,30
2A-MR0304M26,15,training,12,←,left,←,0.7589327000023331,True,30
2A-MR0304M26,16,training,12,↑,up,↑,0.7571392000245396,True,18
2A-MR0304M26,17,training,12,↑,up,↑,0.7426124999765307,True,18
2A-MR0304M26,18,training,12,↑,up,↑,0.5767607000016142,True,18
2A-MR0304M26,19,training,12,→,right,→,0.638606799999252,True,18
2A-MR0304M26,20,training,12,↓,down,↓,0.78997640000307,True,18
2A-MR0304M26,21,training,12,↑,up,↑,0.6763346999941859,True,18
2A-MR0304M26,22,training,12,↑,up,↑,0.8058380000002217,True,18
2A-MR0304M26,23,training,12,↓,down,↓,0.7867062000150327,True,18
2A-MR0304M26,24,training,12,←,down,↓,0.4821615999971982,False,18
2A-MR0304M26,25,training,12,↓,down,↓,0.8942131999938283,True,18
2A-MR0304M26,26,training,14,←,left,←,0.6322672000096645,True,15
2A-MR0304M26,27,training,15,↑,right,→,0.9485710999870207,False,15
2A-MR0304M26,28,experiment,13,→,right,→,0.785539999982575,True,15
2A-MR0304M26,29,experiment,14,↓,down,↓,0.5770306999911554,True,15
2A-MR0304M26,30,experiment,15,↑,no_key,no_letter,-1.0,False,15
2A-MR0304M26,31,experiment,12,↓,down,↓,0.602208000025712,True,15
2A-MR0304M26,32,training,12,←,left,←,0.736659399990458,True,15
2A-MR0304M26,33,training,14,↑,left,←,1.6451723000209313,False,15
2A-MR0304M26,34,experiment,15,↓,no_key,no_letter,-1.0,False,15
2A-MR0304M26,35,experiment,12,↓,down,↓,0.43785630000638776,True,15
2A-MR0304M26,36,experiment,13,↑,down,↓,1.470812300016405,False,15
2A-MR0304M26,37,experiment,14,←,left,←,0.7896132000023499,True,15
2A-MR0304M26,38,training,12,→,right,→,0.7165056000230834,True,16
2A-MR0304M26,39,training,12,←,left,←,0.6433033999928739,True,16
2A-MR0304M26,40,experiment,12,↑,up,↑,0.5932927000103518,True,16
2A-MR0304M26,41,experiment,15,←,right,→,0.9031019000103697,False,16
2A-MR0304M26,42,experiment,14,↑,up,↑,1.10785770000075,True,16
2A-MR0304M26,43,experiment,13,↓,down,↓,0.6824427999963518,True,16
2A-MR0304M26,44,training,14,←,no_key,no_letter,-1.0,False,16
2A-MR0304M26,45,training,14,↑,up,↑,0.9330926999973599,True,16
2A-MR0304M26,46,experiment,15,←,left,←,0.6045648000144865,True,16
2A-MR0304M26,47,experiment,14,←,left,←,0.4562427999917418,True,16
2A-MR0304M26,48,experiment,12,←,right,→,0.4566908999986481,False,16
2A-MR0304M26,49,experiment,13,↑,up,↑,0.5221974000160117,True,16
2A-MR0304M26,50,training,15,←,no_key,no_letter,-1.0,False,16
2A-MR0304M26,51,training,13,↓,left,←,0.7304588999832049,False,16
2A-MR0304M26,52,experiment,12,→,left,←,0.535172000003513,False,16
2A-MR0304M26,53,experiment,15,←,right,→,1.4061843000235967,False,16
2A-MR0304M26,54,experiment,14,←,left,←,0.8024533000134397,True,16
2A-MR0304M26,55,experiment,13,↓,no_key,no_letter,-1.0,False,16
2A-MR0304M26,56,training,15,↑,up,↑,0.6280748999852221,True,17
2A-MR0304M26,57,training,12,←,left,←,0.6694072000100277,True,17
2A-MR0304M26,58,experiment,15,↓,down,↓,0.6526976999884937,True,17
2A-MR0304M26,59,experiment,12,→,left,←,0.6955760999990162,False,17
2A-MR0304M26,60,experiment,13,←,left,←,0.6484197999816388,True,17
2A-MR0304M26,61,experiment,14,↓,down,↓,0.5905296000128146,True,17
2A-MR0304M26,62,training,13,↑,up,↑,0.6871992999804206,True,17
2A-MR0304M26,63,training,12,↑,up,↑,0.4838331999781076,True,17
2A-MR0304M26,64,experiment,12,↑,up,↑,0.856357200013008,True,17
2A-MR0304M26,65,experiment,15,←,left,←,0.6411866000271402,True,17
2A-MR0304M26,66,experiment,14,→,left,←,0.4801037000142969,False,17
2A-MR0304M26,67,experiment,13,↑,up,↑,0.6961944000213407,True,17
2A-MR0304M26,68,training,15,↑,up,↑,0.8349785000027623,True,17
2A-MR0304M26,69,training,14,→,right,→,0.7064558999845758,True,17
2A-MR0304M26,70,experiment,14,↑,right,→,1.0669121000100859,False,17
2A-MR0304M26,71,experiment,13,↓,down,↓,1.3008243999793194,True,17
2A-MR0304M26,72,experiment,15,↑,no_key,no_letter,-1.0,False,17
2A-MR0304M26,73,experiment,12,←,left,←,0.6661606999987271,True,17
2A-MR0304M26,74,training,12,→,right,→,0.6056210999959148,True,18
2A-MR0304M26,75,training,15,↓,down,↓,0.634941099997377,True,18
2A-MR0304M26,76,experiment,12,↓,down,↓,0.721948499995051,True,18
2A-MR0304M26,77,experiment,13,←,left,←,0.9601606999931391,True,18
2A-MR0304M26,78,experiment,15,↓,down,↓,0.6974075000034645,True,18
2A-MR0304M26,79,experiment,14,→,right,→,0.7966304000001401,True,18
2A-MR0304M26,80,training,13,↓,down,↓,0.47938629999407567,True,17
2A-MR0304M26,81,training,13,←,left,←,0.6770928999758326,True,17
2A-MR0304M26,82,experiment,15,↓,down,↓,0.6032816999941133,True,17
2A-MR0304M26,83,experiment,14,←,left,←,0.7882642999757081,True,17
2A-MR0304M26,84,experiment,13,←,left,←,1.8225834000040777,True,17
2A-MR0304M26,85,experiment,12,↑,up,↑,0.6509577000106219,True,17
2A-MR0304M26,86,training,14,↓,up,↑,0.6626127999916207,False,16
2A-MR0304M26,87,training,13,←,left,←,0.7862622000102419,True,16
2A-MR0304M26,88,experiment,15,→,left,←,1.0963555999915116,False,16
2A-MR0304M26,89,experiment,12,↑,up,↑,0.6527169000182766,True,16
2A-MR0304M26,90,experiment,14,→,left,←,0.682277099986095,False,16
2A-MR0304M26,91,experiment,13,→,left,←,0.5871280999854207,False,16
