PART_ID,Trial_no,Trial_type,CSI,Stim_letter,Key_pressed,letter_choose,Rt,Corr,Stimulus Time
2A-ML2107K23,1,training,12,→,up,↑,1.7651167002040893,False,30
2A-ML2107K23,2,training,12,↑,up,↑,0.8098816000856459,True,30
2A-ML2107K23,3,training,12,←,left,←,1.1307736998423934,True,30
2A-ML2107K23,4,training,12,←,left,←,0.8195513999089599,True,30
2A-ML2107K23,5,training,12,→,right,→,0.9669833998195827,True,30
2A-ML2107K23,6,training,12,←,left,←,0.7305338999722153,True,30
2A-ML2107K23,7,training,12,↑,left,←,0.5673100000713021,False,30
2A-ML2107K23,8,training,12,←,left,←,0.6720298998989165,True,30
2A-ML2107K23,9,training,12,←,left,←,0.6170840000268072,True,30
2A-ML2107K23,10,training,12,→,right,→,0.6751359000336379,True,30
2A-ML2107K23,11,training,12,←,left,←,0.7309139999561012,True,30
2A-ML2107K23,12,training,12,←,left,←,0.7017906000837684,True,30
2A-ML2107K23,13,training,12,↑,up,↑,0.6339293997734785,True,30
2A-ML2107K23,14,training,12,←,left,←,0.8410910000093281,True,30
2A-ML2107K23,15,training,12,↓,down,↓,0.8273433998692781,True,30
2A-ML2107K23,16,training,12,→,left,←,1.0943043001461774,False,18
2A-ML2107K23,17,training,12,→,right,→,1.0912317999172956,True,18
2A-ML2107K23,18,training,12,←,left,←,0.810891100205481,True,18
2A-ML2107K23,19,training,12,↑,down,↓,1.1545992998871952,False,18
2A-ML2107K23,20,training,12,←,left,←,0.8352796998806298,True,18
2A-ML2107K23,21,training,12,↑,up,↑,0.5827482000458986,True,18
2A-ML2107K23,22,training,12,↑,up,↑,0.7795245000161231,True,18
2A-ML2107K23,23,training,12,↓,down,↓,0.5938812999520451,True,18
2A-ML2107K23,24,training,12,←,left,←,0.8046075999736786,True,18
2A-ML2107K23,25,training,12,↓,down,↓,0.6496480999048799,True,18
2A-ML2107K23,26,training,14,↓,down,↓,1.0933193999808282,True,15
2A-ML2107K23,27,training,15,↑,up,↑,1.2356262002140284,True,15
2A-ML2107K23,28,experiment,15,↓,down,↓,0.6997313001193106,True,15
2A-ML2107K23,29,experiment,14,→,left,←,1.1613192001823336,False,15
2A-ML2107K23,30,experiment,13,↑,down,↓,0.7816085000522435,False,15
2A-ML2107K23,31,experiment,12,↓,down,↓,0.6221449000295252,True,15
2A-ML2107K23,32,training,13,←,left,←,0.7795192999765277,True,16
2A-ML2107K23,33,training,15,↑,down,↓,0.7584139001555741,False,16
2A-ML2107K23,34,experiment,12,↓,down,↓,0.5812139001209289,True,16
2A-ML2107K23,35,experiment,13,↓,right,→,0.6691144998185337,False,16
2A-ML2107K23,36,experiment,14,↓,down,↓,0.7144277000334114,True,16
2A-ML2107K23,37,experiment,15,→,right,→,0.5407115998677909,True,16
2A-ML2107K23,38,training,15,↑,down,↓,0.5215862998738885,False,16
2A-ML2107K23,39,training,14,→,right,→,0.5999263999983668,True,16
2A-ML2107K23,40,experiment,14,←,left,←,0.509598100092262,True,16
2A-ML2107K23,41,experiment,15,↓,right,→,0.43780869990587234,False,16
2A-ML2107K23,42,experiment,12,↓,up,↑,0.7265429000835866,False,16
2A-ML2107K23,43,experiment,13,→,right,→,0.5780754000879824,True,16
2A-ML2107K23,44,training,14,←,down,↓,0.5745602999813855,False,17
2A-ML2107K23,45,training,13,←,left,←,0.5783347000833601,True,17
2A-ML2107K23,46,experiment,14,↑,up,↑,0.6004209998063743,True,17
2A-ML2107K23,47,experiment,13,↓,up,↑,1.2669360998552293,False,17
2A-ML2107K23,48,experiment,15,→,right,→,0.7384031999390572,True,17
2A-ML2107K23,49,experiment,12,↓,up,↑,0.8226312000770122,False,17
2A-ML2107K23,50,training,15,→,up,↑,0.6929520999547094,False,18
2A-ML2107K23,51,training,13,→,right,→,0.7760888000484556,True,18
2A-ML2107K23,52,experiment,13,→,right,→,0.5860588001087308,True,18
2A-ML2107K23,53,experiment,14,→,right,→,0.8276134000625461,True,18
2A-ML2107K23,54,experiment,12,→,right,→,0.5555495999287814,True,18
2A-ML2107K23,55,experiment,15,↑,up,↑,0.59698859998025,True,18
2A-ML2107K23,56,training,14,←,left,←,0.6173543001059443,True,17
2A-ML2107K23,57,training,14,←,left,←,0.6085364001337439,True,17
2A-ML2107K23,58,experiment,13,←,right,→,0.6408621999435127,False,17
2A-ML2107K23,59,experiment,15,↓,no_key,no_letter,-1.0,False,17
2A-ML2107K23,60,experiment,12,→,right,→,0.7169134998694062,True,17
2A-ML2107K23,61,experiment,14,↑,up,↑,0.686251699924469,True,17
2A-ML2107K23,62,training,12,↑,up,↑,0.6967843999154866,True,18
2A-ML2107K23,63,training,14,→,right,→,0.6360923999454826,True,18
2A-ML2107K23,64,experiment,15,→,right,→,0.5422489999327809,True,18
2A-ML2107K23,65,experiment,13,←,left,←,0.3502255000639707,True,18
2A-ML2107K23,66,experiment,12,↑,no_key,no_letter,-1.0,False,18
2A-ML2107K23,67,experiment,14,↓,no_key,no_letter,-1.0,False,18
2A-ML2107K23,68,training,12,←,right,→,0.6122447999659926,False,18
2A-ML2107K23,69,training,12,↑,up,↑,0.8259085998870432,True,18
2A-ML2107K23,70,experiment,14,→,right,→,0.5626735999248922,True,18
2A-ML2107K23,71,experiment,12,↑,down,↓,1.097508299862966,False,18
2A-ML2107K23,72,experiment,15,↑,up,↑,0.5762483000289649,True,18
2A-ML2107K23,73,experiment,13,↑,right,→,0.6233983000274748,False,18
2A-ML2107K23,74,training,13,↓,up,↑,0.6114010000601411,False,18
2A-ML2107K23,75,training,14,→,right,→,0.5020721000619233,True,18
2A-ML2107K23,76,experiment,12,↓,up,↑,0.8918268999550492,False,18
2A-ML2107K23,77,experiment,15,←,left,←,0.4170425001066178,True,18
2A-ML2107K23,78,experiment,13,↑,up,↑,0.433426900068298,True,18
2A-ML2107K23,79,experiment,14,→,right,→,0.5528541998937726,True,18
2A-ML2107K23,80,training,15,↓,left,←,0.38384220004081726,False,18
2A-ML2107K23,81,training,15,←,left,←,0.4682722999714315,True,18
2A-ML2107K23,82,experiment,12,↓,down,↓,0.6197152000386268,True,18
2A-ML2107K23,83,experiment,14,↑,up,↑,0.494941100012511,True,18
2A-ML2107K23,84,experiment,15,←,down,↓,0.885509500047192,False,18
2A-ML2107K23,85,experiment,13,→,right,→,0.6152784000150859,True,18
2A-ML2107K23,86,training,13,←,left,←,0.41706499992869794,True,18
2A-ML2107K23,87,training,14,→,right,→,0.5720536999870092,True,18
2A-ML2107K23,88,experiment,14,↓,down,↓,0.6043766001239419,True,18
2A-ML2107K23,89,experiment,15,↓,down,↓,0.6636855001561344,True,18
2A-ML2107K23,90,experiment,12,↑,up,↑,0.5428149998188019,True,18
2A-ML2107K23,91,experiment,13,→,right,→,0.5124816000461578,True,18
