PART_ID,Trial_no,Trial_type,CSI,Stim_letter,Key_pressed,letter_choose,Rt,Corr,Stimulus Time
2A-MZ1301M19,1,training,12,←,left,←,1.7746386000071652,True,30
2A-MZ1301M19,2,training,12,↑,up,↑,0.9122337000007974,True,30
2A-MZ1301M19,3,training,12,→,right,→,0.7996453000087058,True,30
2A-MZ1301M19,4,training,12,↓,down,↓,0.8080446999956621,True,30
2A-MZ1301M19,5,training,12,↑,up,↑,0.753833199996734,True,30
2A-MZ1301M19,6,training,12,↓,down,↓,0.8033737000077963,True,30
2A-MZ1301M19,7,training,12,→,right,→,0.7747900999966078,True,30
2A-MZ1301M19,8,training,12,↓,down,↓,0.9483002000051783,True,30
2A-MZ1301M19,9,training,12,→,right,→,0.6987236999993911,True,30
2A-MZ1301M19,10,training,12,↓,down,↓,0.7918414000014309,True,30
2A-MZ1301M19,11,training,12,→,right,→,0.7057132000045385,True,30
2A-MZ1301M19,12,training,12,↑,up,↑,0.6340205000014976,True,30
2A-MZ1301M19,13,training,12,↓,down,↓,0.7432605000067269,True,30
2A-MZ1301M19,14,training,12,↑,up,↑,0.7395207999943523,True,30
2A-MZ1301M19,15,training,12,←,left,←,0.6719469999952707,True,30
2A-MZ1301M19,16,training,12,↑,up,↑,0.5394577999977628,True,18
2A-MZ1301M19,17,training,12,→,right,→,0.8654745999956504,True,18
2A-MZ1301M19,18,training,12,↓,down,↓,0.7999869999912335,True,18
2A-MZ1301M19,19,training,12,→,no_key,no_letter,-1.0,False,18
2A-MZ1301M19,20,training,12,↑,up,↑,0.6187118999951053,True,18
2A-MZ1301M19,21,training,12,→,right,→,0.6504062000021804,True,18
2A-MZ1301M19,22,training,12,↓,down,↓,0.6266388000076404,True,18
2A-MZ1301M19,23,training,12,→,right,→,0.6802511999994749,True,18
2A-MZ1301M19,24,training,12,←,left,←,0.7634854999923846,True,18
2A-MZ1301M19,25,training,12,↑,up,↑,0.9577456999977585,True,18
2A-MZ1301M19,26,training,14,↑,up,↑,0.4727582000050461,True,15
2A-MZ1301M19,27,training,12,↓,down,↓,0.6823165000096196,True,15
2A-MZ1301M19,28,experiment,15,←,left,←,0.7019814000086626,True,15
2A-MZ1301M19,29,experiment,13,↓,down,↓,0.6099667999951635,True,15
2A-MZ1301M19,30,experiment,14,↓,down,↓,0.8932636999961687,True,15
2A-MZ1301M19,31,experiment,12,←,left,←,0.7944213000009768,True,15
2A-MZ1301M19,32,training,14,↓,down,↓,0.7834610999998404,True,14
2A-MZ1301M19,33,training,13,←,left,←,0.45651199998974334,True,14
2A-MZ1301M19,34,experiment,12,→,right,→,0.5391564000019571,True,14
2A-MZ1301M19,35,experiment,15,←,left,←,0.48018990000127815,True,14
2A-MZ1301M19,36,experiment,13,→,right,→,0.6358132000023033,True,14
2A-MZ1301M19,37,experiment,14,↓,right,→,1.439590699999826,False,14
2A-MZ1301M19,38,training,12,←,left,←,0.578759900003206,True,14
2A-MZ1301M19,39,training,13,←,left,←,0.5987842000031378,True,14
2A-MZ1301M19,40,experiment,15,←,left,←,0.5503458000021055,True,14
2A-MZ1301M19,41,experiment,12,↑,down,↓,0.7482711000047857,False,14
2A-MZ1301M19,42,experiment,14,↑,up,↑,0.7359991999983322,True,14
2A-MZ1301M19,43,experiment,13,←,right,→,1.1366472000081558,False,14
2A-MZ1301M19,44,training,13,←,right,→,0.6422216000064509,False,15
2A-MZ1301M19,45,training,14,←,left,←,0.6536936999909813,True,15
2A-MZ1301M19,46,experiment,14,↑,up,↑,0.5468443999998271,True,15
2A-MZ1301M19,47,experiment,12,←,left,←,0.7580508999963058,True,15
2A-MZ1301M19,48,experiment,13,→,up,↑,0.6848709000041708,False,15
2A-MZ1301M19,49,experiment,15,↑,up,↑,0.6379676000069594,True,15
2A-MZ1301M19,50,training,12,→,left,←,0.699592400007532,False,15
2A-MZ1301M19,51,training,14,→,no_key,no_letter,-1.0,False,15
2A-MZ1301M19,52,experiment,13,←,left,←,0.5343036999984179,True,15
2A-MZ1301M19,53,experiment,14,↓,down,↓,0.7045355000009295,True,15
2A-MZ1301M19,54,experiment,15,←,right,→,1.0985305000067456,False,15
2A-MZ1301M19,55,experiment,12,↑,down,↓,0.6749450999923283,False,15
2A-MZ1301M19,56,training,14,→,right,→,0.5670432999904733,True,16
2A-MZ1301M19,57,training,14,←,left,←,0.5071911999984877,True,16
2A-MZ1301M19,58,experiment,13,↓,down,↓,0.6080709999951068,True,16
2A-MZ1301M19,59,experiment,14,↑,right,→,1.0883463000063784,False,16
2A-MZ1301M19,60,experiment,12,→,right,→,0.562798600003589,True,16
2A-MZ1301M19,61,experiment,15,↓,down,↓,1.0949800999951549,True,16
2A-MZ1301M19,62,training,12,→,left,←,0.659133400011342,False,16
2A-MZ1301M19,63,training,12,←,left,←,0.5095696999924257,True,16
2A-MZ1301M19,64,experiment,13,↓,down,↓,0.690734000003431,True,16
2A-MZ1301M19,65,experiment,15,↓,down,↓,0.7214191999955801,True,16
2A-MZ1301M19,66,experiment,14,↓,down,↓,0.473393300009775,True,16
2A-MZ1301M19,67,experiment,12,↓,no_key,no_letter,-1.0,False,16
2A-MZ1301M19,68,training,13,↓,down,↓,0.4974663999892073,True,16
2A-MZ1301M19,69,training,14,↓,no_key,no_letter,-1.0,False,16
2A-MZ1301M19,70,experiment,12,→,left,←,1.0470614999940153,False,16
2A-MZ1301M19,71,experiment,13,↑,up,↑,0.6977882999926805,True,16
2A-MZ1301M19,72,experiment,15,↑,left,←,0.7126365000003716,False,16
2A-MZ1301M19,73,experiment,14,↑,up,↑,0.7340057999972487,True,16
2A-MZ1301M19,74,training,13,←,left,←,0.4630390999955125,True,17
2A-MZ1301M19,75,training,14,←,left,←,0.4897165000002133,True,17
2A-MZ1301M19,76,experiment,14,↑,right,→,0.8207030999910785,False,17
2A-MZ1301M19,77,experiment,13,↓,down,↓,0.5771338000049582,True,17
2A-MZ1301M19,78,experiment,15,←,left,←,0.5842968000069959,True,17
2A-MZ1301M19,79,experiment,12,↓,down,↓,0.535431600001175,True,17
2A-MZ1301M19,80,training,14,←,left,←,0.4581730000063544,True,17
2A-MZ1301M19,81,training,14,→,right,→,0.5968097000004491,True,17
2A-MZ1301M19,82,experiment,13,←,left,←,0.5454609999869717,True,17
2A-MZ1301M19,83,experiment,12,↑,right,→,0.8503403999930015,False,17
2A-MZ1301M19,84,experiment,14,→,right,→,0.6753158000065014,True,17
2A-MZ1301M19,85,experiment,15,←,left,←,0.8280717000016011,True,17
2A-MZ1301M19,86,training,13,↓,down,↓,0.48037819999444764,True,17
2A-MZ1301M19,87,training,13,↓,down,↓,0.4788661000056891,True,17
2A-MZ1301M19,88,experiment,14,←,left,←,0.5770137000072282,True,17
2A-MZ1301M19,89,experiment,15,→,left,←,0.49444900000526104,False,17
2A-MZ1301M19,90,experiment,13,↑,down,↓,0.6472654999961378,False,17
2A-MZ1301M19,91,experiment,12,↓,left,←,1.4980622000002768,False,17
