PART_ID,Trial_no,Trial_type,CSI,Stim_letter,Key_pressed,letter_choose,Rt,Corr,Stimulus Time
2A-OJ2507K19,1,training,12,→,no_key,no_letter,-1.0,False,30
2A-OJ2507K19,2,training,12,←,left,←,1.3759947000071406,True,30
2A-OJ2507K19,3,training,12,↑,right,→,2.1022884999983944,False,30
2A-OJ2507K19,4,training,12,←,left,←,0.6702822999795899,True,30
2A-OJ2507K19,5,training,12,→,right,→,0.7019489000085741,True,30
2A-OJ2507K19,6,training,12,↑,up,↑,1.711478299985174,True,30
2A-OJ2507K19,7,training,12,↓,down,↓,0.971488400013186,True,30
2A-OJ2507K19,8,training,12,↑,up,↑,0.9696482999715954,True,30
2A-OJ2507K19,9,training,12,→,right,→,1.1493003999930806,True,30
2A-OJ2507K19,10,training,12,→,right,→,1.0471416999935172,True,30
2A-OJ2507K19,11,training,12,←,left,←,0.8297151000006124,True,30
2A-OJ2507K19,12,training,12,←,left,←,0.5671111000119708,True,30
2A-OJ2507K19,13,training,12,←,right,→,1.0024473000084981,False,30
2A-OJ2507K19,14,training,12,→,right,→,0.6967857999843545,True,30
2A-OJ2507K19,15,training,12,←,left,←,0.8434049999923445,True,30
2A-OJ2507K19,16,training,12,←,left,←,1.0776637000381015,True,18
2A-OJ2507K19,17,training,12,←,left,←,0.8177402000292204,True,18
2A-OJ2507K19,18,training,12,↑,up,↑,0.8033963000052609,True,18
2A-OJ2507K19,19,training,12,→,left,←,0.8553659000317566,False,18
2A-OJ2507K19,20,training,12,→,left,←,0.9283766999724321,False,18
2A-OJ2507K19,21,training,12,↑,up,↑,0.6218510000035167,True,18
2A-OJ2507K19,22,training,12,↓,down,↓,0.702651200001128,True,18
2A-OJ2507K19,23,training,12,↑,up,↑,1.029573200037703,True,18
2A-OJ2507K19,24,training,12,→,right,→,0.6546818999922834,True,18
2A-OJ2507K19,25,training,12,←,left,←,0.9184714000439271,True,18
2A-OJ2507K19,26,training,14,→,left,←,0.7930624000146054,False,15
2A-OJ2507K19,27,training,13,↑,up,↑,1.3048469999921508,True,15
2A-OJ2507K19,28,experiment,13,↑,down,↓,1.2895613000146113,False,15
2A-OJ2507K19,29,experiment,15,→,up,↑,1.6011180999921635,False,15
2A-OJ2507K19,30,experiment,14,→,left,←,0.7978858000133187,False,15
2A-OJ2507K19,31,experiment,12,←,left,←,0.8661075999843888,True,15
2A-OJ2507K19,32,training,12,↓,down,↓,0.6816705000237562,True,16
2A-OJ2507K19,33,training,12,↑,up,↑,0.6760697000427172,True,16
2A-OJ2507K19,34,experiment,12,↓,down,↓,0.6957943000015803,True,16
2A-OJ2507K19,35,experiment,14,↑,up,↑,1.4129657999728806,True,16
2A-OJ2507K19,36,experiment,15,→,right,→,0.5654604000155814,True,16
2A-OJ2507K19,37,experiment,13,↓,up,↑,0.8839942999766208,False,16
2A-OJ2507K19,38,training,15,→,up,↑,0.7778582000173628,False,16
2A-OJ2507K19,39,training,15,→,up,↑,0.9364554000203498,False,16
2A-OJ2507K19,40,experiment,13,→,down,↓,1.5431049999897368,False,16
2A-OJ2507K19,41,experiment,14,←,left,←,1.7185392000246793,True,16
2A-OJ2507K19,42,experiment,15,←,left,←,0.8797515999758616,True,16
2A-OJ2507K19,43,experiment,12,↓,up,↑,1.024984499963466,False,16
2A-OJ2507K19,44,training,15,←,left,←,0.47858289995929226,True,17
2A-OJ2507K19,45,training,13,→,right,→,0.5781409000046551,True,17
2A-OJ2507K19,46,experiment,15,↓,left,←,0.9003746000234969,False,17
2A-OJ2507K19,47,experiment,14,↓,left,←,1.3753023999743164,False,17
2A-OJ2507K19,48,experiment,13,↑,up,↑,0.9707169999601319,True,17
2A-OJ2507K19,49,experiment,12,↑,down,↓,1.5020377999753691,False,17
2A-OJ2507K19,50,training,14,→,down,↓,0.8649434999679215,False,18
2A-OJ2507K19,51,training,13,↑,up,↑,1.218271400022786,True,18
2A-OJ2507K19,52,experiment,15,→,right,→,0.9663372000213712,True,18
2A-OJ2507K19,53,experiment,14,↑,up,↑,0.8563263000105508,True,18
2A-OJ2507K19,54,experiment,13,↑,up,↑,1.0189015999785624,True,18
2A-OJ2507K19,55,experiment,12,→,right,→,0.8126062999945134,True,18
2A-OJ2507K19,56,training,13,→,up,↑,0.8619630000321195,False,17
2A-OJ2507K19,57,training,13,→,up,↑,1.6380501000094227,False,17
2A-OJ2507K19,58,experiment,13,↑,right,→,1.0914203000138514,False,17
2A-OJ2507K19,59,experiment,12,→,right,→,0.6730450000031851,True,17
2A-OJ2507K19,60,experiment,14,→,right,→,0.4592345000128262,True,17
2A-OJ2507K19,61,experiment,15,↓,down,↓,0.5880835000425577,True,17
2A-OJ2507K19,62,training,12,←,left,←,1.0220123000326566,True,17
2A-OJ2507K19,63,training,12,↑,down,↓,1.2175978999584913,False,17
2A-OJ2507K19,64,experiment,12,↑,up,↑,0.8749675999861211,True,17
2A-OJ2507K19,65,experiment,15,→,down,↓,0.4798762999707833,False,17
2A-OJ2507K19,66,experiment,14,←,left,←,0.7058553000097163,True,17
2A-OJ2507K19,67,experiment,13,←,right,→,0.5965534000424668,False,17
2A-OJ2507K19,68,training,14,←,down,↓,1.378627999976743,False,18
2A-OJ2507K19,69,training,14,↑,up,↑,1.371361400000751,True,18
2A-OJ2507K19,70,experiment,12,↑,down,↓,1.8517602999927476,False,18
2A-OJ2507K19,71,experiment,13,↑,up,↑,0.9528196000028402,True,18
2A-OJ2507K19,72,experiment,15,→,right,→,0.7792557000066154,True,18
2A-OJ2507K19,73,experiment,14,←,left,←,0.9222673999611288,True,18
2A-OJ2507K19,74,training,13,↑,up,↑,0.9944929999765009,True,18
2A-OJ2507K19,75,training,13,→,right,→,0.5940556999994442,True,18
2A-OJ2507K19,76,experiment,12,←,left,←,0.7521168999955989,True,18
2A-OJ2507K19,77,experiment,14,↑,up,↑,0.8809963000239804,True,18
2A-OJ2507K19,78,experiment,13,→,down,↓,1.07612549996702,False,18
2A-OJ2507K19,79,experiment,15,↓,down,↓,0.8540336999576539,True,18
2A-OJ2507K19,80,training,13,←,left,←,0.8169145000283606,True,18
2A-OJ2507K19,81,training,14,←,left,←,0.7815822999691591,True,18
2A-OJ2507K19,82,experiment,13,→,right,→,0.5403537999955006,True,18
2A-OJ2507K19,83,experiment,12,↑,down,↓,1.3174080000026152,False,18
2A-OJ2507K19,84,experiment,14,↓,down,↓,0.7918311000103131,True,18
2A-OJ2507K19,85,experiment,15,↑,up,↑,0.6999596999958158,True,18
2A-OJ2507K19,86,training,13,←,up,↑,0.8585650000022724,False,18
2A-OJ2507K19,87,training,15,↓,down,↓,0.6430957000120543,True,18
2A-OJ2507K19,88,experiment,13,↓,down,↓,0.549401200027205,True,18
2A-OJ2507K19,89,experiment,14,↓,up,↑,0.38387399999191985,False,18
2A-OJ2507K19,90,experiment,15,↑,down,↓,0.8405836999882013,False,18
2A-OJ2507K19,91,experiment,12,↑,down,↓,0.9273898999672383,False,18
