PART_ID,Trial_no,Trial_type,CSI,Stim_letter,Key_pressed,letter_choose,Rt,Corr,Stimulus Time
2A-RB2312K23,1,training,12,←,no_key,no_letter,-1.0,False,30
2A-RB2312K23,2,training,12,↓,no_key,no_letter,-1.0,False,30
2A-RB2312K23,3,training,12,←,left,←,1.6536763000185601,True,30
2A-RB2312K23,4,training,12,↑,up,↑,1.3662438999745063,True,30
2A-RB2312K23,5,training,12,↓,down,↓,1.0756032999488525,True,30
2A-RB2312K23,6,training,12,←,left,←,1.1807624999783002,True,30
2A-RB2312K23,7,training,12,←,left,←,0.9921838999725878,True,30
2A-RB2312K23,8,training,12,→,right,→,1.0073682999936864,True,30
2A-RB2312K23,9,training,12,→,right,→,0.7328625000081956,True,30
2A-RB2312K23,10,training,12,←,left,←,1.0734134999802336,True,30
2A-RB2312K23,11,training,12,→,right,→,0.7436282999697141,True,30
2A-RB2312K23,12,training,12,→,right,→,0.7892963999765925,True,30
2A-RB2312K23,13,training,12,→,right,→,0.6004364000400528,True,30
2A-RB2312K23,14,training,12,↑,no_key,no_letter,-1.0,False,30
2A-RB2312K23,15,training,12,←,down,↓,1.0870265999692492,False,30
2A-RB2312K23,16,training,12,↓,down,↓,0.874635300016962,True,18
2A-RB2312K23,17,training,12,↑,up,↑,1.6788223999901675,True,18
2A-RB2312K23,18,training,12,→,right,→,0.9796438000048511,True,18
2A-RB2312K23,19,training,12,↓,down,↓,0.6820177999907173,True,18
2A-RB2312K23,20,training,12,→,right,→,0.8213269999832846,True,18
2A-RB2312K23,21,training,12,↓,down,↓,1.1919514000182971,True,18
2A-RB2312K23,22,training,12,↓,down,↓,1.1302688000141643,True,18
2A-RB2312K23,23,training,12,↓,down,↓,0.884262099978514,True,18
2A-RB2312K23,24,training,12,↑,up,↑,0.9769808999844827,True,18
2A-RB2312K23,25,training,12,→,right,→,1.0961817000061274,True,18
2A-RB2312K23,26,training,12,←,left,←,1.0223770999582484,True,15
2A-RB2312K23,27,training,12,↑,up,↑,1.237052499956917,True,15
2A-RB2312K23,28,experiment,13,↑,up,↑,1.0158758000470698,True,15
2A-RB2312K23,29,experiment,14,↓,down,↓,0.9851599999819882,True,15
2A-RB2312K23,30,experiment,12,←,left,←,0.8054227000102401,True,15
2A-RB2312K23,31,experiment,15,←,left,←,0.8057695999741554,True,15
2A-RB2312K23,32,training,12,←,right,→,1.145248500048183,False,14
2A-RB2312K23,33,training,12,→,right,→,0.9266054999898188,True,14
2A-RB2312K23,34,experiment,15,↓,right,→,1.2270588999963365,False,14
2A-RB2312K23,35,experiment,12,←,up,↑,1.3983414000249468,False,14
2A-RB2312K23,36,experiment,14,←,up,↑,1.7735211999970488,False,14
2A-RB2312K23,37,experiment,13,→,down,↓,1.0923010000260547,False,14
2A-RB2312K23,38,training,13,→,right,→,1.0851153999683447,True,15
2A-RB2312K23,39,training,15,↓,down,↓,0.9740888999658637,True,15
2A-RB2312K23,40,experiment,13,←,left,←,0.961152600008063,True,15
2A-RB2312K23,41,experiment,14,→,right,→,0.8599574000108987,True,15
2A-RB2312K23,42,experiment,12,←,left,←,0.9480103999958374,True,15
2A-RB2312K23,43,experiment,15,←,right,→,1.2067900000256486,False,15
2A-RB2312K23,44,training,12,→,left,←,1.0876805000007153,False,15
2A-RB2312K23,45,training,14,→,no_key,no_letter,-1.0,False,15
2A-RB2312K23,46,experiment,13,→,right,→,0.9679278000257909,True,15
2A-RB2312K23,47,experiment,14,→,right,→,0.8737059999839403,True,15
2A-RB2312K23,48,experiment,15,↑,up,↑,0.9711361000081524,True,15
2A-RB2312K23,49,experiment,12,→,down,↓,0.8893457000376657,False,15
2A-RB2312K23,50,training,12,→,right,→,1.011436100001447,True,15
2A-RB2312K23,51,training,12,↑,left,←,1.301060999976471,False,15
2A-RB2312K23,52,experiment,15,↓,down,↓,1.0330508999759331,True,15
2A-RB2312K23,53,experiment,13,←,left,←,1.0242402000003494,True,15
2A-RB2312K23,54,experiment,14,→,left,←,0.9010099999723025,False,15
2A-RB2312K23,55,experiment,12,↓,left,←,1.051975299953483,False,15
2A-RB2312K23,56,training,12,↓,down,↓,0.9176279000239447,True,16
2A-RB2312K23,57,training,12,→,right,→,1.082083999994211,True,16
2A-RB2312K23,58,experiment,12,←,left,←,1.067817700037267,True,16
2A-RB2312K23,59,experiment,14,←,left,←,0.707966200017836,True,16
2A-RB2312K23,60,experiment,15,←,left,←,0.7078747000196017,True,16
2A-RB2312K23,61,experiment,13,↑,up,↑,1.1818712000385858,True,16
2A-RB2312K23,62,training,13,←,left,←,1.12904150004033,True,15
2A-RB2312K23,63,training,13,←,right,→,1.170032199996058,False,15
2A-RB2312K23,64,experiment,12,↓,down,↓,1.8404623999958858,True,15
2A-RB2312K23,65,experiment,13,↑,up,↑,0.804086499963887,True,15
2A-RB2312K23,66,experiment,15,↓,left,←,1.279079100000672,False,15
2A-RB2312K23,67,experiment,14,→,right,→,0.9151222000364214,True,15
2A-RB2312K23,68,training,12,←,left,←,1.01117150002392,True,15
2A-RB2312K23,69,training,14,↓,down,↓,0.9390827000024728,True,15
2A-RB2312K23,70,experiment,13,↓,down,↓,1.0235907000023872,True,15
2A-RB2312K23,71,experiment,12,←,left,←,0.995331299956888,True,15
2A-RB2312K23,72,experiment,14,→,right,→,0.8352296999655664,True,15
2A-RB2312K23,73,experiment,15,→,left,←,1.0607306000310928,False,15
2A-RB2312K23,74,training,15,←,left,←,0.8489637000020593,True,15
2A-RB2312K23,75,training,14,←,left,←,0.6595628999639302,True,15
2A-RB2312K23,76,experiment,12,↓,down,↓,0.9015928999870084,True,15
2A-RB2312K23,77,experiment,15,↑,down,↓,0.9034367999993265,False,15
2A-RB2312K23,78,experiment,13,↑,up,↑,0.8453036000137217,True,15
2A-RB2312K23,79,experiment,14,→,right,→,0.7055215000291355,True,15
2A-RB2312K23,80,training,14,↑,down,↓,0.9703912999830209,False,15
2A-RB2312K23,81,training,13,→,right,→,0.7066432000137866,True,15
2A-RB2312K23,82,experiment,12,↑,down,↓,0.9252493000240065,False,15
2A-RB2312K23,83,experiment,13,←,left,←,0.9213811999652535,True,15
2A-RB2312K23,84,experiment,14,→,right,→,0.6969854999915697,True,15
2A-RB2312K23,85,experiment,15,←,left,←,0.7781299999915063,True,15
2A-RB2312K23,86,training,13,↑,right,→,1.2201431000139564,False,15
2A-RB2312K23,87,training,14,↑,up,↑,0.8319377999869175,True,15
2A-RB2312K23,88,experiment,14,→,right,→,0.6517334000091068,True,15
2A-RB2312K23,89,experiment,15,→,right,→,0.8523982999613509,True,15
2A-RB2312K23,90,experiment,12,↓,down,↓,1.2215278999647126,True,15
2A-RB2312K23,91,experiment,13,←,left,←,1.0893199000274763,True,15
