PART_ID,Trial_no,Trial_type,CSI,Stim_letter,Key_pressed,letter_choose,Rt,Corr,Stimulus Time
2A-TO0408M22,1,training,12,↑,up,↑,1.297216999984812,True,30
2A-TO0408M22,2,training,12,↓,right,→,0.7317489999986719,False,30
2A-TO0408M22,3,training,12,↑,up,↑,0.7458012999850325,True,30
2A-TO0408M22,4,training,12,→,right,→,0.9307905999885406,True,30
2A-TO0408M22,5,training,12,←,left,←,0.5839080000005197,True,30
2A-TO0408M22,6,training,12,→,right,→,0.5171646999951918,True,30
2A-TO0408M22,7,training,12,↓,left,←,0.3846124999981839,False,30
2A-TO0408M22,8,training,12,→,left,←,1.816654700000072,False,30
2A-TO0408M22,9,training,12,→,right,→,0.5505188000097405,True,30
2A-TO0408M22,10,training,12,→,right,→,0.4177473000017926,True,30
2A-TO0408M22,11,training,12,↑,up,↑,0.5838266999926418,True,30
2A-TO0408M22,12,training,12,↑,up,↑,0.6983152000175323,True,30
2A-TO0408M22,13,training,12,→,right,→,0.5668972000130452,True,30
2A-TO0408M22,14,training,12,←,left,←,0.483931599999778,True,30
2A-TO0408M22,15,training,12,↓,up,↑,0.43454849999397993,False,30
2A-TO0408M22,16,training,12,←,left,←,1.0258628000156023,True,18
2A-TO0408M22,17,training,12,↓,down,↓,0.5603711000003386,True,18
2A-TO0408M22,18,training,12,←,down,↓,0.7009434000065085,False,18
2A-TO0408M22,19,training,12,←,right,→,0.3836301999981515,False,18
2A-TO0408M22,20,training,12,↑,up,↑,0.5064368000021204,True,18
2A-TO0408M22,21,training,12,↓,down,↓,0.5221100999915507,True,18
2A-TO0408M22,22,training,12,←,left,←,0.5290151000081096,True,18
2A-TO0408M22,23,training,12,↓,down,↓,0.47278490001917817,True,18
2A-TO0408M22,24,training,12,↑,up,↑,0.784797600004822,True,18
2A-TO0408M22,25,training,12,↑,down,↓,0.4339920000056736,False,18
2A-TO0408M22,26,training,15,→,right,→,0.41786169999977574,True,15
2A-TO0408M22,27,training,13,→,right,→,0.6629598999861628,True,15
2A-TO0408M22,28,experiment,15,↓,down,↓,1.2063857000030112,True,15
2A-TO0408M22,29,experiment,14,←,left,←,0.5805075000098441,True,15
2A-TO0408M22,30,experiment,12,→,right,→,0.5344293999951333,True,15
2A-TO0408M22,31,experiment,13,↑,up,↑,0.5538403000100516,True,15
2A-TO0408M22,32,training,12,←,down,↓,0.6749490000074729,False,14
2A-TO0408M22,33,training,15,↑,down,↓,0.41134689998580143,False,14
2A-TO0408M22,34,experiment,13,↓,down,↓,0.7595164000231307,True,14
2A-TO0408M22,35,experiment,14,←,left,←,0.5144680000084918,True,14
2A-TO0408M22,36,experiment,15,←,left,←,0.4896258999942802,True,14
2A-TO0408M22,37,experiment,12,→,right,→,1.1731237999920268,True,14
2A-TO0408M22,38,training,14,←,right,→,0.4140769000223372,False,13
2A-TO0408M22,39,training,13,←,left,←,0.529133300005924,True,13
2A-TO0408M22,40,experiment,12,→,right,→,0.4032682999968529,True,13
2A-TO0408M22,41,experiment,13,←,left,←,0.5131508999911603,True,13
2A-TO0408M22,42,experiment,15,↓,down,↓,0.4114064000023063,True,13
2A-TO0408M22,43,experiment,14,↑,down,↓,0.5967090000049211,False,13
2A-TO0408M22,44,training,15,↓,down,↓,0.4059978000004776,True,13
2A-TO0408M22,45,training,12,←,left,←,0.31718670000554994,True,13
2A-TO0408M22,46,experiment,14,←,left,←,0.601339699991513,True,13
2A-TO0408M22,47,experiment,12,←,left,←,0.436063600005582,True,13
2A-TO0408M22,48,experiment,13,↓,down,↓,0.3937251000024844,True,13
2A-TO0408M22,49,experiment,15,↓,down,↓,0.5757088000245858,True,13
2A-TO0408M22,50,training,12,↓,down,↓,0.43426830001408234,True,12
2A-TO0408M22,51,training,13,→,right,→,0.333892199996626,True,12
2A-TO0408M22,52,experiment,15,↑,up,↑,0.6117251999967266,True,12
2A-TO0408M22,53,experiment,12,→,left,←,0.3777782999968622,False,12
2A-TO0408M22,54,experiment,14,←,right,→,0.42778009999892674,False,12
2A-TO0408M22,55,experiment,13,←,left,←,0.5430255999963265,True,12
2A-TO0408M22,56,training,15,↑,up,↑,0.4828052000084426,True,13
2A-TO0408M22,57,training,13,→,right,→,0.4499010999861639,True,13
2A-TO0408M22,58,experiment,14,→,right,→,0.47956629999680445,True,13
2A-TO0408M22,59,experiment,12,↑,up,↑,0.6832135999866296,True,13
2A-TO0408M22,60,experiment,13,↓,down,↓,0.4477189999888651,True,13
2A-TO0408M22,61,experiment,15,→,right,→,0.45981259999098256,True,13
2A-TO0408M22,62,training,12,↓,down,↓,0.3980128999974113,True,12
2A-TO0408M22,63,training,13,←,right,→,0.39061380000202917,False,12
2A-TO0408M22,64,experiment,12,←,left,←,0.4269788999808952,True,12
2A-TO0408M22,65,experiment,15,←,left,←,0.6291019000054803,True,12
2A-TO0408M22,66,experiment,13,←,right,→,0.31729840001207776,False,12
2A-TO0408M22,67,experiment,14,↓,down,↓,0.44542319999891333,True,12
2A-TO0408M22,68,training,12,↑,down,↓,0.3824754999950528,False,12
2A-TO0408M22,69,training,12,↑,right,→,0.2675137000042014,False,12
2A-TO0408M22,70,experiment,14,←,left,←,0.49230009998427704,True,12
2A-TO0408M22,71,experiment,15,←,left,←,0.4222566999960691,True,12
2A-TO0408M22,72,experiment,12,→,left,←,0.4320820999855641,False,12
2A-TO0408M22,73,experiment,13,↑,right,→,0.28945509999175556,False,12
2A-TO0408M22,74,training,13,→,left,←,0.6603572999883909,False,13
2A-TO0408M22,75,training,14,→,right,→,0.49199419998330995,True,13
2A-TO0408M22,76,experiment,13,↑,up,↑,0.44230419999803416,True,13
2A-TO0408M22,77,experiment,15,←,left,←,0.38554720001411624,True,13
2A-TO0408M22,78,experiment,12,↓,down,↓,0.5366865999822039,True,13
2A-TO0408M22,79,experiment,14,→,right,→,0.4607712000142783,True,13
2A-TO0408M22,80,training,15,←,right,→,0.5891787000000477,False,12
2A-TO0408M22,81,training,12,↑,up,↑,0.4141955000231974,True,12
2A-TO0408M22,82,experiment,12,↓,down,↓,0.47528139999485575,True,12
2A-TO0408M22,83,experiment,13,→,left,←,0.30020699999295175,False,12
2A-TO0408M22,84,experiment,14,↑,up,↑,0.6445738000038546,True,12
2A-TO0408M22,85,experiment,15,↓,down,↓,0.4891745000204537,True,12
2A-TO0408M22,86,training,13,←,left,←,0.4646323000197299,True,12
2A-TO0408M22,87,training,15,→,right,→,0.4320655000046827,True,12
2A-TO0408M22,88,experiment,12,←,left,←,0.43527600000379607,True,12
2A-TO0408M22,89,experiment,13,↑,up,↑,0.38388350000604987,True,12
2A-TO0408M22,90,experiment,15,↑,down,↓,0.608410000015283,False,12
2A-TO0408M22,91,experiment,14,↑,left,←,0.6298647999938112,False,12
