PART_ID,Trial_no,Trial_type,CSI,Stim_letter,Key_pressed,letter_choose,Rt,Corr,Stimulus Time
2A-ZJ2201K23,1,training,12,↑,no_key,no_letter,-1.0,False,30
2A-ZJ2201K23,2,training,12,→,right,→,1.8255403999937698,True,30
2A-ZJ2201K23,3,training,12,→,right,→,0.5506753999507055,True,30
2A-ZJ2201K23,4,training,12,↓,down,↓,1.7680390999885276,True,30
2A-ZJ2201K23,5,training,12,↓,down,↓,0.5505810000468045,True,30
2A-ZJ2201K23,6,training,12,↓,down,↓,0.5338346000062302,True,30
2A-ZJ2201K23,7,training,12,←,left,←,0.4509708998957649,True,30
2A-ZJ2201K23,8,training,12,↓,left,←,0.7132630000123754,False,30
2A-ZJ2201K23,9,training,12,←,down,↓,1.6786550000542775,False,30
2A-ZJ2201K23,10,training,12,←,left,←,0.7490701000206172,True,30
2A-ZJ2201K23,11,training,12,↑,up,↑,0.8208696000510827,True,30
2A-ZJ2201K23,12,training,12,↑,up,↑,0.6005218999926001,True,30
2A-ZJ2201K23,13,training,12,→,right,→,0.7787844999693334,True,30
2A-ZJ2201K23,14,training,12,→,right,→,0.5503511000424623,True,30
2A-ZJ2201K23,15,training,12,→,right,→,0.9436869999626651,True,30
2A-ZJ2201K23,16,training,12,↓,left,←,1.1037829000269994,False,18
2A-ZJ2201K23,17,training,12,→,left,←,0.9621921998914331,False,18
2A-ZJ2201K23,18,training,12,↓,down,↓,0.7557798000052571,True,18
2A-ZJ2201K23,19,training,12,↓,down,↓,0.6004654999123886,True,18
2A-ZJ2201K23,20,training,12,←,left,←,0.6361683000577614,True,18
2A-ZJ2201K23,21,training,12,→,down,↓,0.8801763999508694,False,18
2A-ZJ2201K23,22,training,12,↓,down,↓,0.6258884000126272,True,18
2A-ZJ2201K23,23,training,12,→,right,→,0.7371253999881446,True,18
2A-ZJ2201K23,24,training,12,←,left,←,0.7440351000986993,True,18
2A-ZJ2201K23,25,training,12,↑,up,↑,0.7006328999996185,True,18
2A-ZJ2201K23,26,training,15,↓,down,↓,0.721527099958621,True,15
2A-ZJ2201K23,27,training,14,↓,left,←,0.9670344999758527,False,15
2A-ZJ2201K23,28,experiment,14,↑,down,↓,1.0354228999931365,False,15
2A-ZJ2201K23,29,experiment,15,→,left,←,0.8674726000754163,False,15
2A-ZJ2201K23,30,experiment,12,↑,up,↑,0.5135323000140488,True,15
2A-ZJ2201K23,31,experiment,13,→,right,→,0.5879076999844983,True,15
2A-ZJ2201K23,32,training,12,→,right,→,0.6078026999020949,True,16
2A-ZJ2201K23,33,training,12,↓,down,↓,0.5322490999242291,True,16
2A-ZJ2201K23,34,experiment,13,←,down,↓,0.9011262999847531,False,16
2A-ZJ2201K23,35,experiment,14,↑,up,↑,0.5662294999929145,True,16
2A-ZJ2201K23,36,experiment,15,←,left,←,0.5097723000217229,True,16
2A-ZJ2201K23,37,experiment,12,←,left,←,0.56556170003023,True,16
2A-ZJ2201K23,38,training,12,←,left,←,0.7832842000061646,True,16
2A-ZJ2201K23,39,training,12,↓,down,↓,0.6763109000166878,True,16
2A-ZJ2201K23,40,experiment,13,→,right,→,0.9322070999769494,True,16
2A-ZJ2201K23,41,experiment,15,↑,up,↑,0.4972245000535622,True,16
2A-ZJ2201K23,42,experiment,12,→,right,→,0.8465377999236807,True,16
2A-ZJ2201K23,43,experiment,14,↓,down,↓,0.7766003999859095,True,16
2A-ZJ2201K23,44,training,15,←,left,←,0.5230997001053765,True,15
2A-ZJ2201K23,45,training,14,↑,right,→,1.0261017000302672,False,15
2A-ZJ2201K23,46,experiment,15,↓,down,↓,0.5299837999045849,True,15
2A-ZJ2201K23,47,experiment,12,→,right,→,0.7353863000171259,True,15
2A-ZJ2201K23,48,experiment,14,←,left,←,0.6747087000403553,True,15
2A-ZJ2201K23,49,experiment,13,↓,down,↓,0.6816806000424549,True,15
2A-ZJ2201K23,50,training,13,←,right,→,0.7418556999182329,False,14
2A-ZJ2201K23,51,training,12,←,down,↓,1.246989500010386,False,14
2A-ZJ2201K23,52,experiment,15,→,right,→,0.4498092000139877,True,14
2A-ZJ2201K23,53,experiment,13,↓,down,↓,0.6017777000088245,True,14
2A-ZJ2201K23,54,experiment,12,↓,down,↓,0.8427814000751823,True,14
2A-ZJ2201K23,55,experiment,14,→,right,→,0.5435674999607727,True,14
2A-ZJ2201K23,56,training,13,←,right,→,0.6911706000100821,False,13
2A-ZJ2201K23,57,training,12,←,left,←,0.950363399926573,True,13
2A-ZJ2201K23,58,experiment,14,→,right,→,0.569508200045675,True,13
2A-ZJ2201K23,59,experiment,15,↑,down,↓,0.9327071000589058,False,13
2A-ZJ2201K23,60,experiment,13,↓,right,→,0.7988125999690965,False,13
2A-ZJ2201K23,61,experiment,12,←,left,←,0.7508099999977276,True,13
2A-ZJ2201K23,62,training,12,↓,down,↓,0.580916800070554,True,14
2A-ZJ2201K23,63,training,12,↑,down,↓,0.9911628999980167,False,14
2A-ZJ2201K23,64,experiment,12,↓,down,↓,0.6561572999926284,True,14
2A-ZJ2201K23,65,experiment,14,←,left,←,0.5939119999529794,True,14
2A-ZJ2201K23,66,experiment,15,↓,down,↓,0.6221090999897569,True,14
2A-ZJ2201K23,67,experiment,13,↑,right,→,0.8875226000091061,False,14
2A-ZJ2201K23,68,training,14,↓,down,↓,1.1392513000173494,True,14
2A-ZJ2201K23,69,training,13,←,left,←,0.5514749999856576,True,14
2A-ZJ2201K23,70,experiment,14,→,right,→,0.7073200000450015,True,14
2A-ZJ2201K23,71,experiment,13,→,right,→,0.6888369999360293,True,14
2A-ZJ2201K23,72,experiment,15,→,right,→,0.5668355999514461,True,14
2A-ZJ2201K23,73,experiment,12,↑,left,←,0.7783786000218242,False,14
2A-ZJ2201K23,74,training,12,↑,down,↓,0.7175171000417322,False,14
2A-ZJ2201K23,75,training,14,→,right,→,0.5555699999677017,True,14
2A-ZJ2201K23,76,experiment,15,→,right,→,0.48438260005787015,True,14
2A-ZJ2201K23,77,experiment,14,→,right,→,0.49531869997736067,True,14
2A-ZJ2201K23,78,experiment,12,→,right,→,0.4610506999306381,True,14
2A-ZJ2201K23,79,experiment,13,↑,up,↑,0.6710234000347555,True,14
2A-ZJ2201K23,80,training,12,↓,down,↓,0.6418510000221431,True,13
2A-ZJ2201K23,81,training,12,↓,down,↓,0.5787172999698669,True,13
2A-ZJ2201K23,82,experiment,15,←,left,←,0.9655232999939471,True,13
2A-ZJ2201K23,83,experiment,13,↑,up,↑,0.5970533000072464,True,13
2A-ZJ2201K23,84,experiment,14,↑,up,↑,0.5625758999958634,True,13
2A-ZJ2201K23,85,experiment,12,↑,left,←,1.690978099941276,False,13
2A-ZJ2201K23,86,training,14,↓,up,↑,1.425649999990128,False,13
2A-ZJ2201K23,87,training,14,→,right,→,0.4746104000369087,True,13
2A-ZJ2201K23,88,experiment,14,→,right,→,0.5075573999201879,True,13
2A-ZJ2201K23,89,experiment,15,←,left,←,0.5293573000235483,True,13
2A-ZJ2201K23,90,experiment,12,→,left,←,1.4570970999775454,False,13
2A-ZJ2201K23,91,experiment,13,↑,right,→,1.021234599989839,False,13
