PART_ID,Trial_no,Trial_type,CSI,Stim_letter,Key_pressed,letter_choose,Rt,Corr,Stimulus Time
2B-AC0919M23,1,training,12,→,no_key,no_letter,-1.0,False,30
2B-AC0919M23,2,training,12,↓,up,↑,1.2582838998641819,False,30
2B-AC0919M23,3,training,12,↓,no_key,no_letter,-1.0,False,30
2B-AC0919M23,4,training,12,←,left,←,0.8934436000417918,True,30
2B-AC0919M23,5,training,12,←,no_key,no_letter,-1.0,False,30
2B-AC0919M23,6,training,12,↑,no_key,no_letter,-1.0,False,30
2B-AC0919M23,7,training,12,↑,up,↑,2.013057100120932,True,30
2B-AC0919M23,8,training,12,→,right,→,1.8797344998456538,True,30
2B-AC0919M23,9,training,12,←,down,↓,1.5053609998431057,False,30
2B-AC0919M23,10,training,12,↑,up,↑,1.100447699893266,True,30
2B-AC0919M23,11,training,12,↑,up,↑,0.6889255999121815,True,30
2B-AC0919M23,12,training,12,→,right,→,0.6339585999958217,True,30
2B-AC0919M23,13,training,12,↑,up,↑,1.8636081998702139,True,30
2B-AC0919M23,14,training,12,↑,up,↑,0.5506396000273526,True,30
2B-AC0919M23,15,training,12,↑,down,↓,1.2915369998663664,False,30
2B-AC0919M23,16,training,12,↑,up,↑,0.7835882999934256,True,18
2B-AC0919M23,17,training,12,↑,up,↑,0.8321405998431146,True,18
2B-AC0919M23,18,training,12,↓,up,↑,1.1568824998103082,False,18
2B-AC0919M23,19,training,12,→,right,→,0.5248438999988139,True,18
2B-AC0919M23,20,training,12,←,down,↓,1.2250606000889093,False,18
2B-AC0919M23,21,training,12,→,right,→,1.0220935000106692,True,18
2B-AC0919M23,22,training,12,↓,down,↓,0.6856649999972433,True,18
2B-AC0919M23,23,training,12,→,right,→,0.6705624999012798,True,18
2B-AC0919M23,24,training,12,↓,down,↓,0.774077899986878,True,18
2B-AC0919M23,25,training,12,↑,down,↓,1.2203406000044197,False,18
2B-AC0919M23,26,training,13,←,down,↓,1.1000300000887364,False,15
2B-AC0919M23,27,training,15,↓,down,↓,1.0238444001879543,True,15
2B-AC0919M23,28,experiment,12,↓,down,↓,0.8759231001604348,True,15
2B-AC0919M23,29,experiment,15,↓,down,↓,0.8162908998783678,True,15
2B-AC0919M23,30,experiment,14,↑,down,↓,1.0441046000923961,False,15
2B-AC0919M23,31,experiment,13,↑,down,↓,0.8012225998099893,False,15
2B-AC0919M23,32,training,15,←,down,↓,0.9564958999399096,False,16
2B-AC0919M23,33,training,15,↑,down,↓,0.7266987999901175,False,16
2B-AC0919M23,34,experiment,15,←,left,←,1.4444444000255316,True,16
2B-AC0919M23,35,experiment,14,↑,down,↓,0.9452349999919534,False,16
2B-AC0919M23,36,experiment,12,←,left,←,0.7279274999164045,True,16
2B-AC0919M23,37,experiment,13,←,left,←,0.5888589001260698,True,16
2B-AC0919M23,38,training,13,↑,up,↑,0.5653918001335114,True,16
2B-AC0919M23,39,training,15,↓,down,↓,0.8097507997881621,True,16
2B-AC0919M23,40,experiment,12,←,right,→,0.8402902998495847,False,16
2B-AC0919M23,41,experiment,15,←,right,→,0.7634113999083638,False,16
2B-AC0919M23,42,experiment,14,↓,down,↓,0.7983341999351978,True,16
2B-AC0919M23,43,experiment,13,←,left,←,0.46157489996403456,True,16
2B-AC0919M23,44,training,14,↓,down,↓,0.8504659999161959,True,17
2B-AC0919M23,45,training,12,→,right,→,0.4512091998476535,True,17
2B-AC0919M23,46,experiment,12,→,left,←,0.982552699977532,False,17
2B-AC0919M23,47,experiment,13,↑,up,↑,0.5243367000948638,True,17
2B-AC0919M23,48,experiment,14,→,right,→,0.6498817999381572,True,17
2B-AC0919M23,49,experiment,15,↓,down,↓,0.8410098000895232,True,17
2B-AC0919M23,50,training,14,→,right,→,0.9191312999464571,True,17
2B-AC0919M23,51,training,15,←,left,←,0.8793099999893457,True,17
2B-AC0919M23,52,experiment,15,←,left,←,0.7519993998575956,True,17
2B-AC0919M23,53,experiment,12,↑,up,↑,0.5470792001578957,True,17
2B-AC0919M23,54,experiment,14,↑,down,↓,0.5366672999225557,False,17
2B-AC0919M23,55,experiment,13,↑,up,↑,0.5971678998321295,True,17
2B-AC0919M23,56,training,12,→,right,→,0.8443877999670804,True,17
2B-AC0919M23,57,training,12,←,right,→,0.8574588000774384,False,17
2B-AC0919M23,58,experiment,12,↑,up,↑,0.4683347998652607,True,17
2B-AC0919M23,59,experiment,15,←,left,←,0.6291712000966072,True,17
2B-AC0919M23,60,experiment,13,←,left,←,0.6775515000335872,True,17
2B-AC0919M23,61,experiment,14,↑,up,↑,0.5616007999051362,True,17
2B-AC0919M23,62,training,13,→,right,→,0.4987107999622822,True,16
2B-AC0919M23,63,training,14,↑,up,↑,0.7681063001509756,True,16
2B-AC0919M23,64,experiment,14,↑,down,↓,1.1084485000465065,False,16
2B-AC0919M23,65,experiment,15,←,left,←,0.6300661999266595,True,16
2B-AC0919M23,66,experiment,13,←,left,←,0.7227342000696808,True,16
2B-AC0919M23,67,experiment,12,←,right,→,0.7737720001023263,False,16
2B-AC0919M23,68,training,13,↓,down,↓,0.6756949999835342,True,17
2B-AC0919M23,69,training,14,←,left,←,0.7611788001377136,True,17
2B-AC0919M23,70,experiment,13,↑,no_key,no_letter,-1.0,False,17
2B-AC0919M23,71,experiment,15,→,right,→,0.7461550000589341,True,17
2B-AC0919M23,72,experiment,14,↑,no_key,no_letter,-1.0,False,17
2B-AC0919M23,73,experiment,12,↓,down,↓,0.6397031000815332,True,17
2B-AC0919M23,74,training,13,↓,down,↓,0.7007724000141025,True,18
2B-AC0919M23,75,training,12,←,right,→,0.6338359001092613,False,18
2B-AC0919M23,76,experiment,14,↓,down,↓,0.5771715000737458,True,18
2B-AC0919M23,77,experiment,13,↑,no_key,no_letter,-1.0,False,18
2B-AC0919M23,78,experiment,12,↓,down,↓,0.5118584998417646,True,18
2B-AC0919M23,79,experiment,15,←,right,→,0.6161882001906633,False,18
2B-AC0919M23,80,training,12,→,no_key,no_letter,-1.0,False,18
2B-AC0919M23,81,training,12,→,no_key,no_letter,-1.0,False,18
2B-AC0919M23,82,experiment,12,→,right,→,0.8857711998280138,True,18
2B-AC0919M23,83,experiment,15,↑,up,↑,0.5203891999553889,True,18
2B-AC0919M23,84,experiment,14,↓,down,↓,0.48175249993801117,True,18
2B-AC0919M23,85,experiment,13,→,right,→,0.4940072998870164,True,18
2B-AC0919M23,86,training,13,↓,down,↓,1.6274820999242365,True,17
2B-AC0919M23,87,training,14,↓,down,↓,0.6539179000537843,True,17
2B-AC0919M23,88,experiment,15,→,left,←,0.9838876000139862,False,17
2B-AC0919M23,89,experiment,12,→,right,→,0.7867785999551415,True,17
2B-AC0919M23,90,experiment,13,←,down,↓,0.937997099943459,False,17
2B-AC0919M23,91,experiment,14,↑,up,↑,0.6576421000063419,True,17
