PART_ID,Trial_no,Trial_type,CSI,Stim_letter,Key_pressed,letter_choose,Rt,Corr,Stimulus Time
2B-AP0802K28,1,training,12,→,left,←,1.5842528000939637,False,30
2B-AP0802K28,2,training,12,↑,no_key,no_letter,-1.0,False,30
2B-AP0802K28,3,training,12,↑,up,↑,0.9027114999480546,True,30
2B-AP0802K28,4,training,12,↓,down,↓,0.9894044999964535,True,30
2B-AP0802K28,5,training,12,↓,down,↓,0.6336209999863058,True,30
2B-AP0802K28,6,training,12,←,left,←,0.617234900011681,True,30
2B-AP0802K28,7,training,12,←,right,→,0.5839461999712512,False,30
2B-AP0802K28,8,training,12,←,left,←,0.8122068999800831,True,30
2B-AP0802K28,9,training,12,←,left,←,0.7092629999388009,True,30
2B-AP0802K28,10,training,12,↑,up,↑,1.0784328998997808,True,30
2B-AP0802K28,11,training,12,→,right,→,1.025920100044459,True,30
2B-AP0802K28,12,training,12,↑,up,↑,1.0108960000798106,True,30
2B-AP0802K28,13,training,12,←,left,←,0.8922386999474838,True,30
2B-AP0802K28,14,training,12,↑,up,↑,0.9552705000387505,True,30
2B-AP0802K28,15,training,12,↓,right,→,1.2651239999104291,False,30
2B-AP0802K28,16,training,12,↓,down,↓,0.9730543000623584,True,18
2B-AP0802K28,17,training,12,←,left,←,0.9218786999117583,True,18
2B-AP0802K28,18,training,12,←,left,←,0.788062599953264,True,18
2B-AP0802K28,19,training,12,↑,up,↑,0.8205841999733821,True,18
2B-AP0802K28,20,training,12,↑,up,↑,0.7778886000160128,True,18
2B-AP0802K28,21,training,12,→,left,←,1.155632899957709,False,18
2B-AP0802K28,22,training,12,←,right,→,0.8002064999891445,False,18
2B-AP0802K28,23,training,12,↓,up,↑,0.841045800014399,False,18
2B-AP0802K28,24,training,12,↑,up,↑,0.797072899993509,True,18
2B-AP0802K28,25,training,12,↑,down,↓,0.9535889000399038,False,18
2B-AP0802K28,26,training,12,↓,down,↓,0.7308018000330776,True,15
2B-AP0802K28,27,training,13,↑,up,↑,0.6856268000556156,True,15
2B-AP0802K28,28,experiment,15,→,left,←,0.7778931999346241,False,15
2B-AP0802K28,29,experiment,12,↑,up,↑,0.6103293000487611,True,15
2B-AP0802K28,30,experiment,14,←,left,←,0.5442990000592545,True,15
2B-AP0802K28,31,experiment,13,→,right,→,0.5139040999347344,True,15
2B-AP0802K28,32,training,14,↑,up,↑,0.6508157000644132,True,15
2B-AP0802K28,33,training,14,↓,right,→,1.2912188000045717,False,15
2B-AP0802K28,34,experiment,15,→,right,→,0.5780301000922918,True,15
2B-AP0802K28,35,experiment,14,↑,up,↑,0.4724828000180423,True,15
2B-AP0802K28,36,experiment,12,↓,up,↑,0.8678742999909446,False,15
2B-AP0802K28,37,experiment,13,↑,up,↑,0.8207353999605402,True,15
2B-AP0802K28,38,training,14,↑,up,↑,0.7970996999647468,True,15
2B-AP0802K28,39,training,14,→,right,→,0.6013245000503957,True,15
2B-AP0802K28,40,experiment,15,→,right,→,0.4931314999703318,True,15
2B-AP0802K28,41,experiment,14,↓,down,↓,0.7542889999458566,True,15
2B-AP0802K28,42,experiment,12,↑,up,↑,0.9323533999267966,True,15
2B-AP0802K28,43,experiment,13,↑,down,↓,0.9619699000613764,False,15
2B-AP0802K28,44,training,12,→,right,→,0.6651607000967488,True,15
2B-AP0802K28,45,training,15,↓,down,↓,0.895352500025183,True,15
2B-AP0802K28,46,experiment,13,→,left,←,0.9541043000062928,False,15
2B-AP0802K28,47,experiment,12,↑,down,↓,1.0394751999992877,False,15
2B-AP0802K28,48,experiment,15,←,right,→,0.8446856999071315,False,15
2B-AP0802K28,49,experiment,14,←,left,←,0.6572443000040948,True,15
2B-AP0802K28,50,training,15,←,left,←,0.8637480000033975,True,16
2B-AP0802K28,51,training,15,↓,down,↓,0.7392313999589533,True,16
2B-AP0802K28,52,experiment,15,←,left,←,0.7992137999972329,True,16
2B-AP0802K28,53,experiment,12,→,right,→,0.65804929996375,True,16
2B-AP0802K28,54,experiment,13,↓,left,←,0.7513306000037119,False,16
2B-AP0802K28,55,experiment,14,→,right,→,0.4571009000064805,True,16
2B-AP0802K28,56,training,12,↓,up,↑,0.6731182000366971,False,16
2B-AP0802K28,57,training,12,↑,up,↑,0.8085465000476688,True,16
2B-AP0802K28,58,experiment,14,↓,down,↓,0.6608516999986023,True,16
2B-AP0802K28,59,experiment,13,↓,up,↑,0.9382751999655738,False,16
2B-AP0802K28,60,experiment,15,↑,right,→,0.9798134999582544,False,16
2B-AP0802K28,61,experiment,12,↑,up,↑,0.6137548999395221,True,16
2B-AP0802K28,62,training,12,↑,down,↓,1.0614626000169665,False,17
2B-AP0802K28,63,training,13,←,left,←,0.6490868999389932,True,17
2B-AP0802K28,64,experiment,14,←,left,←,0.516448299982585,True,17
2B-AP0802K28,65,experiment,15,←,left,←,0.7974713000003248,True,17
2B-AP0802K28,66,experiment,12,←,right,→,0.6214658999815583,False,17
2B-AP0802K28,67,experiment,13,↓,right,→,0.6340810999972746,False,17
2B-AP0802K28,68,training,13,↓,down,↓,0.7043469999916852,True,18
2B-AP0802K28,69,training,12,→,left,←,1.0729717999929562,False,18
2B-AP0802K28,70,experiment,15,↓,up,↑,0.7216256000101566,False,18
2B-AP0802K28,71,experiment,14,→,right,→,0.796040799934417,True,18
2B-AP0802K28,72,experiment,12,←,left,←,0.6954402000410482,True,18
2B-AP0802K28,73,experiment,13,↑,up,↑,0.6217549000866711,True,18
2B-AP0802K28,74,training,13,↑,up,↑,0.5147217999910936,True,18
2B-AP0802K28,75,training,12,←,left,←,0.5348242999752983,True,18
2B-AP0802K28,76,experiment,13,↓,right,→,0.5405546999536455,False,18
2B-AP0802K28,77,experiment,15,←,left,←,0.8029362000524998,True,18
2B-AP0802K28,78,experiment,12,↓,down,↓,0.9437392998952419,True,18
2B-AP0802K28,79,experiment,14,←,left,←,0.8325420999899507,True,18
2B-AP0802K28,80,training,15,←,right,→,0.5975762000307441,False,18
2B-AP0802K28,81,training,12,→,right,→,0.6960011000046507,True,18
2B-AP0802K28,82,experiment,14,↑,up,↑,0.9037153999088332,True,18
2B-AP0802K28,83,experiment,12,←,left,←,0.5572821999667212,True,18
2B-AP0802K28,84,experiment,15,↓,up,↑,1.2099865999771282,False,18
2B-AP0802K28,85,experiment,13,←,left,←,0.6769422000506893,True,18
2B-AP0802K28,86,training,15,↑,down,↓,0.9109606000129133,False,18
2B-AP0802K28,87,training,13,→,right,→,0.6380808999529108,True,18
2B-AP0802K28,88,experiment,14,↓,no_key,no_letter,-1.0,False,18
2B-AP0802K28,89,experiment,12,↓,down,↓,0.8333172000711784,True,18
2B-AP0802K28,90,experiment,15,←,left,←,0.8875072000082582,True,18
2B-AP0802K28,91,experiment,13,↓,up,↑,1.4285133000230417,False,18
