PART_ID,Trial_no,Trial_type,CSI,Stim_letter,Key_pressed,letter_choose,Rt,Corr,Stimulus Time
2B-DN0607M22,1,training,12,→,no_key,no_letter,-1.0,False,30
2B-DN0607M22,2,training,12,→,right,→,1.3761993999942206,True,30
2B-DN0607M22,3,training,12,↑,up,↑,0.773460199998226,True,30
2B-DN0607M22,4,training,12,←,left,←,0.5504025999689475,True,30
2B-DN0607M22,5,training,12,←,left,←,0.46799219999229535,True,30
2B-DN0607M22,6,training,12,↑,no_key,no_letter,-1.0,False,30
2B-DN0607M22,7,training,12,↑,up,↑,0.800783800019417,True,30
2B-DN0607M22,8,training,12,↓,down,↓,0.7329278000397608,True,30
2B-DN0607M22,9,training,12,→,right,→,0.5840107999974862,True,30
2B-DN0607M22,10,training,12,←,left,←,0.5338953000027686,True,30
2B-DN0607M22,11,training,12,→,right,→,0.45052600000053644,True,30
2B-DN0607M22,12,training,12,↓,down,↓,0.6340118999942206,True,30
2B-DN0607M22,13,training,12,↑,up,↑,0.6923852000036277,True,30
2B-DN0607M22,14,training,12,↓,down,↓,0.5507694000261836,True,30
2B-DN0607M22,15,training,12,↓,down,↓,0.4347176000010222,True,30
2B-DN0607M22,16,training,12,↑,up,↑,0.7469722999958321,True,18
2B-DN0607M22,17,training,12,←,left,←,0.6125823000329547,True,18
2B-DN0607M22,18,training,12,←,left,←,0.5247543000150472,True,18
2B-DN0607M22,19,training,12,↓,down,↓,0.7614638999802992,True,18
2B-DN0607M22,20,training,12,→,right,→,0.825595100002829,True,18
2B-DN0607M22,21,training,12,↓,down,↓,0.649711100035347,True,18
2B-DN0607M22,22,training,12,↑,up,↑,0.6448046999867074,True,18
2B-DN0607M22,23,training,12,←,right,→,0.5993401000159793,False,18
2B-DN0607M22,24,training,12,↑,up,↑,0.6658289000042714,True,18
2B-DN0607M22,25,training,12,←,left,←,0.6480853000539355,True,18
2B-DN0607M22,26,training,12,→,left,←,0.8073877000133507,False,15
2B-DN0607M22,27,training,14,→,left,←,0.9965123000438325,False,15
2B-DN0607M22,28,experiment,12,←,left,←,0.6581426000338979,True,15
2B-DN0607M22,29,experiment,14,←,left,←,0.7067031000042334,True,15
2B-DN0607M22,30,experiment,13,←,right,→,1.5503050000406802,False,15
2B-DN0607M22,31,experiment,15,↓,left,←,0.9109075999585912,False,15
2B-DN0607M22,32,training,12,←,left,←,0.7986936999950558,True,16
2B-DN0607M22,33,training,14,↑,left,←,1.0257408999605104,False,16
2B-DN0607M22,34,experiment,14,↓,up,↑,1.1346363000338897,False,16
2B-DN0607M22,35,experiment,15,→,right,→,0.6426239999709651,True,16
2B-DN0607M22,36,experiment,12,←,left,←,0.5594567999942228,True,16
2B-DN0607M22,37,experiment,13,→,right,→,0.9313064999878407,True,16
2B-DN0607M22,38,training,12,↑,right,→,0.68471399997361,False,16
2B-DN0607M22,39,training,13,↓,down,↓,0.6361033000284806,True,16
2B-DN0607M22,40,experiment,13,↑,up,↑,0.7947067999630235,True,16
2B-DN0607M22,41,experiment,15,→,left,←,1.544183099991642,False,16
2B-DN0607M22,42,experiment,12,↑,up,↑,0.6117939000250772,True,16
2B-DN0607M22,43,experiment,14,→,left,←,0.9876674999832176,False,16
2B-DN0607M22,44,training,13,↓,right,→,0.9507006999920122,False,17
2B-DN0607M22,45,training,15,→,left,←,0.8096201000153087,False,17
2B-DN0607M22,46,experiment,12,←,left,←,0.7348081999807619,True,17
2B-DN0607M22,47,experiment,13,←,right,→,0.8133939999970607,False,17
2B-DN0607M22,48,experiment,14,↓,left,←,1.0317223999882117,False,17
2B-DN0607M22,49,experiment,15,←,up,↑,1.158988400013186,False,17
2B-DN0607M22,50,training,14,→,right,→,0.5423218999640085,True,18
2B-DN0607M22,51,training,14,←,left,←,0.7686881999834441,True,18
2B-DN0607M22,52,experiment,12,↓,down,↓,0.9132356999907643,True,18
2B-DN0607M22,53,experiment,14,←,right,→,0.8115554999676533,False,18
2B-DN0607M22,54,experiment,15,↓,right,→,0.9549117999849841,False,18
2B-DN0607M22,55,experiment,13,←,left,←,0.5930952000198886,True,18
2B-DN0607M22,56,training,14,←,left,←,0.832341700035613,True,18
2B-DN0607M22,57,training,13,←,left,←,0.6836304999887943,True,18
2B-DN0607M22,58,experiment,14,↑,up,↑,0.6449889999930747,True,18
2B-DN0607M22,59,experiment,15,↓,down,↓,0.6458490999648347,True,18
2B-DN0607M22,60,experiment,12,←,left,←,0.768014800036326,True,18
2B-DN0607M22,61,experiment,13,↓,down,↓,0.8899951000348665,True,18
2B-DN0607M22,62,training,13,↓,down,↓,0.519464600016363,True,17
2B-DN0607M22,63,training,15,→,right,→,0.9634893999900669,True,17
2B-DN0607M22,64,experiment,15,↓,down,↓,0.6198497000150383,True,17
2B-DN0607M22,65,experiment,13,↑,left,←,1.2764333000523038,False,17
2B-DN0607M22,66,experiment,12,↓,down,↓,0.7230782000115141,True,17
2B-DN0607M22,67,experiment,14,↓,left,←,0.994979000010062,False,17
2B-DN0607M22,68,training,13,←,left,←,0.644167699967511,True,18
2B-DN0607M22,69,training,12,↓,right,→,0.49695319996681064,False,18
2B-DN0607M22,70,experiment,15,→,left,←,0.5793065000325441,False,18
2B-DN0607M22,71,experiment,13,↑,up,↑,0.6224420000216924,True,18
2B-DN0607M22,72,experiment,12,←,left,←,0.7514876999775879,True,18
2B-DN0607M22,73,experiment,14,←,left,←,0.7085650999797508,True,18
2B-DN0607M22,74,training,13,←,left,←,0.7235632000374608,True,18
2B-DN0607M22,75,training,14,↑,up,↑,0.6617177000152878,True,18
2B-DN0607M22,76,experiment,13,→,right,→,0.5984559000353329,True,18
2B-DN0607M22,77,experiment,12,→,right,→,0.6952933000284247,True,18
2B-DN0607M22,78,experiment,15,→,right,→,0.7979555999627337,True,18
2B-DN0607M22,79,experiment,14,←,left,←,0.7260595000116155,True,18
2B-DN0607M22,80,training,13,→,right,→,0.5544171999790706,True,17
2B-DN0607M22,81,training,15,↓,down,↓,0.5497835999703966,True,17
2B-DN0607M22,82,experiment,14,→,left,←,0.7911781999864615,False,17
2B-DN0607M22,83,experiment,15,↓,left,←,1.0867347000166774,False,17
2B-DN0607M22,84,experiment,12,←,right,→,0.5057343999505974,False,17
2B-DN0607M22,85,experiment,13,←,left,←,0.5310012999689206,True,17
2B-DN0607M22,86,training,14,↑,up,↑,0.43386590003501624,True,18
2B-DN0607M22,87,training,12,↑,left,←,0.9236697999876924,False,18
2B-DN0607M22,88,experiment,12,↓,right,→,1.6349796999711543,False,18
2B-DN0607M22,89,experiment,13,→,up,↑,1.1767910000053234,False,18
2B-DN0607M22,90,experiment,14,→,right,→,0.648860200017225,True,18
2B-DN0607M22,91,experiment,15,↓,down,↓,0.8490744000300765,True,18
