PART_ID,Trial_no,Trial_type,CSI,Stim_letter,Key_pressed,letter_choose,Rt,Corr,Stimulus Time
2B-JD2101K24,1,training,12,↑,no_key,no_letter,-1.0,False,30
2B-JD2101K24,2,training,12,↑,up,↑,1.0096594999777153,True,30
2B-JD2101K24,3,training,12,↑,up,↑,0.3513269000686705,True,30
2B-JD2101K24,4,training,12,→,up,↑,0.31797350000124425,False,30
2B-JD2101K24,5,training,12,←,right,→,0.31800789991393685,False,30
2B-JD2101K24,6,training,12,→,right,→,0.46789940004236996,True,30
2B-JD2101K24,7,training,12,↑,up,↑,0.4678774999920279,True,30
2B-JD2101K24,8,training,12,↓,down,↓,0.5836867999751121,True,30
2B-JD2101K24,9,training,12,→,right,→,0.40115299995522946,True,30
2B-JD2101K24,10,training,12,→,right,→,0.4838352999649942,True,30
2B-JD2101K24,11,training,12,→,right,→,0.7135955000994727,True,30
2B-JD2101K24,12,training,12,←,left,←,0.5672461999347433,True,30
2B-JD2101K24,13,training,12,↓,right,→,0.45127510000020266,False,30
2B-JD2101K24,14,training,12,↑,up,↑,0.6336633999599144,True,30
2B-JD2101K24,15,training,12,←,left,←,0.4515406999271363,True,30
2B-JD2101K24,16,training,12,→,right,→,1.0680965000065044,True,18
2B-JD2101K24,17,training,12,→,right,→,0.36708720005117357,True,18
2B-JD2101K24,18,training,12,↓,right,→,0.350260499981232,False,18
2B-JD2101K24,19,training,12,↑,no_key,no_letter,-1.0,False,18
2B-JD2101K24,20,training,12,↓,no_key,no_letter,-1.0,False,18
2B-JD2101K24,21,training,12,↑,left,←,0.8238334999186918,False,18
2B-JD2101K24,22,training,12,↓,down,↓,0.5811210999963805,True,18
2B-JD2101K24,23,training,12,↓,right,→,0.6226789000211284,False,18
2B-JD2101K24,24,training,12,→,right,→,0.5168391999322921,True,18
2B-JD2101K24,25,training,12,←,left,←,0.4004322999389842,True,18
2B-JD2101K24,26,training,12,↓,right,→,0.5226866999873891,False,15
2B-JD2101K24,27,training,13,→,right,→,0.5017657999414951,True,15
2B-JD2101K24,28,experiment,14,→,left,←,0.552034700056538,False,15
2B-JD2101K24,29,experiment,13,→,no_key,no_letter,-1.0,False,15
2B-JD2101K24,30,experiment,12,↓,right,→,0.7195191999198869,False,15
2B-JD2101K24,31,experiment,15,←,left,←,0.46749119996093214,True,15
2B-JD2101K24,32,training,15,↓,down,↓,0.5826583000598475,True,16
2B-JD2101K24,33,training,15,↑,left,←,0.7313102999469265,False,16
2B-JD2101K24,34,experiment,15,→,right,→,0.45010949997231364,True,16
2B-JD2101K24,35,experiment,12,→,no_key,no_letter,-1.0,False,16
2B-JD2101K24,36,experiment,13,←,left,←,1.472931999946013,True,16
2B-JD2101K24,37,experiment,14,↓,down,↓,0.5114331999793649,True,16
2B-JD2101K24,38,training,15,↓,left,←,0.4004751000320539,False,16
2B-JD2101K24,39,training,12,↓,right,→,0.46237800002563745,False,16
2B-JD2101K24,40,experiment,14,→,left,←,0.300330700003542,False,16
2B-JD2101K24,41,experiment,15,↓,down,↓,0.513083300087601,True,16
2B-JD2101K24,42,experiment,13,→,right,→,0.40038719994481653,True,16
2B-JD2101K24,43,experiment,12,←,left,←,0.4843095999676734,True,16
2B-JD2101K24,44,training,13,←,right,→,0.5503974000457674,False,16
2B-JD2101K24,45,training,15,↓,no_key,no_letter,-1.0,False,16
2B-JD2101K24,46,experiment,13,↑,right,→,0.7636424999218434,False,16
2B-JD2101K24,47,experiment,15,↓,down,↓,0.6955294000217691,True,16
2B-JD2101K24,48,experiment,12,↓,right,→,0.4996115999529138,False,16
2B-JD2101K24,49,experiment,14,←,left,←,0.5683509000809863,True,16
2B-JD2101K24,50,training,14,↑,up,↑,0.7325096999993548,True,17
2B-JD2101K24,51,training,12,↓,down,↓,0.48013579996768385,True,17
2B-JD2101K24,52,experiment,13,↓,down,↓,0.48143040004651994,True,17
2B-JD2101K24,53,experiment,12,→,left,←,0.5651740999892354,False,17
2B-JD2101K24,54,experiment,15,←,left,←,0.4687715999316424,True,17
2B-JD2101K24,55,experiment,14,←,left,←,0.40048029995523393,True,17
2B-JD2101K24,56,training,13,→,right,→,0.679005500045605,True,17
2B-JD2101K24,57,training,12,←,no_key,no_letter,-1.0,False,17
2B-JD2101K24,58,experiment,14,↑,down,↓,0.6014411000069231,False,17
2B-JD2101K24,59,experiment,15,→,down,↓,0.5261633999180049,False,17
2B-JD2101K24,60,experiment,12,←,left,←,0.36721200007013977,True,17
2B-JD2101K24,61,experiment,13,→,left,←,0.5900139999575913,False,17
2B-JD2101K24,62,training,13,↓,left,←,0.5255570000736043,False,18
2B-JD2101K24,63,training,13,↓,left,←,0.6782910999609157,False,18
2B-JD2101K24,64,experiment,12,→,right,→,0.6420363000361249,True,18
2B-JD2101K24,65,experiment,13,→,right,→,0.43378790002316236,True,18
2B-JD2101K24,66,experiment,15,↑,no_key,no_letter,-1.0,False,18
2B-JD2101K24,67,experiment,14,→,left,←,0.3838306999532506,False,18
2B-JD2101K24,68,training,15,→,right,→,0.630079900030978,True,18
2B-JD2101K24,69,training,13,↑,up,↑,0.4171356000006199,True,18
2B-JD2101K24,70,experiment,12,→,right,→,0.5017022000392899,True,18
2B-JD2101K24,71,experiment,15,↑,no_key,no_letter,-1.0,False,18
2B-JD2101K24,72,experiment,13,↑,up,↑,0.4338841999415308,True,18
2B-JD2101K24,73,experiment,14,→,no_key,no_letter,-1.0,False,18
2B-JD2101K24,74,training,12,←,right,→,0.8488974999636412,False,18
2B-JD2101K24,75,training,15,↓,down,↓,0.5159640000201762,True,18
2B-JD2101K24,76,experiment,14,←,left,←,0.40051369997672737,True,18
2B-JD2101K24,77,experiment,12,→,right,→,0.4337770000565797,True,18
2B-JD2101K24,78,experiment,15,→,right,→,0.5535207000793889,True,18
2B-JD2101K24,79,experiment,13,→,right,→,0.41705600009299815,True,18
2B-JD2101K24,80,training,15,↑,up,↑,0.4982467000372708,True,17
2B-JD2101K24,81,training,13,↓,no_key,no_letter,-1.0,False,17
2B-JD2101K24,82,experiment,15,↓,down,↓,0.8100670999847353,True,17
2B-JD2101K24,83,experiment,14,↑,left,←,0.5499122999608517,False,17
2B-JD2101K24,84,experiment,13,↑,up,↑,1.8879878999432549,True,17
2B-JD2101K24,85,experiment,12,↑,up,↑,0.33390059997327626,True,17
2B-JD2101K24,86,training,12,↑,up,↑,1.418316000024788,True,17
2B-JD2101K24,87,training,12,←,left,←,0.45921560004353523,True,17
2B-JD2101K24,88,experiment,15,↓,right,→,0.93177459994331,False,17
2B-JD2101K24,89,experiment,14,→,left,←,0.2837360999546945,False,17
2B-JD2101K24,90,experiment,13,↓,right,→,1.460690800100565,False,17
2B-JD2101K24,91,experiment,12,→,no_key,no_letter,-1.0,False,17
