PART_ID,Trial_no,Trial_type,CSI,Stim_letter,Key_pressed,letter_choose,Rt,Corr,Stimulus Time
2B-JK0210K23,1,training,12,↓,down,↓,2.0797831999952905,True,30
2B-JK0210K23,2,training,12,←,left,←,1.5539226999972016,True,30
2B-JK0210K23,3,training,12,→,no_key,no_letter,-1.0,False,30
2B-JK0210K23,4,training,12,↑,up,↑,1.2117441000009421,True,30
2B-JK0210K23,5,training,12,→,right,→,1.3070645999978296,True,30
2B-JK0210K23,6,training,12,↓,up,↑,1.2077275000046939,False,30
2B-JK0210K23,7,training,12,↑,up,↑,0.9850596000032965,True,30
2B-JK0210K23,8,training,12,↑,up,↑,1.0327907000028063,True,30
2B-JK0210K23,9,training,12,→,right,→,0.6172234999830835,True,30
2B-JK0210K23,10,training,12,↓,up,↑,0.6338625999924261,False,30
2B-JK0210K23,11,training,12,←,left,←,0.8276161999965552,True,30
2B-JK0210K23,12,training,12,→,left,←,0.4678778999950737,False,30
2B-JK0210K23,13,training,12,←,left,←,0.9082663000153843,True,30
2B-JK0210K23,14,training,12,←,right,→,1.4013055000104941,False,30
2B-JK0210K23,15,training,12,↓,down,↓,0.9277678999933414,True,30
2B-JK0210K23,16,training,12,↓,down,↓,0.96986859999015,True,18
2B-JK0210K23,17,training,12,→,right,→,0.7042245999909937,True,18
2B-JK0210K23,18,training,12,↓,down,↓,0.7120798999967519,True,18
2B-JK0210K23,19,training,12,→,down,↓,1.1159018999896944,False,18
2B-JK0210K23,20,training,12,↓,down,↓,0.791376000008313,True,18
2B-JK0210K23,21,training,12,↓,down,↓,0.8972191000066232,True,18
2B-JK0210K23,22,training,12,↑,up,↑,0.8472998999932315,True,18
2B-JK0210K23,23,training,12,↓,down,↓,0.8811257000197656,True,18
2B-JK0210K23,24,training,12,↑,up,↑,0.8294671000039671,True,18
2B-JK0210K23,25,training,12,↑,up,↑,0.7610296000202652,True,18
2B-JK0210K23,26,training,15,↓,up,↑,1.118558199988911,False,15
2B-JK0210K23,27,training,13,↓,down,↓,0.8800276000110898,True,15
2B-JK0210K23,28,experiment,13,←,up,↑,1.4803229999961331,False,15
2B-JK0210K23,29,experiment,15,↑,up,↑,0.8265333999879658,True,15
2B-JK0210K23,30,experiment,12,↑,up,↑,0.9781989999755751,True,15
2B-JK0210K23,31,experiment,14,↑,up,↑,0.868670000025304,True,15
2B-JK0210K23,32,training,12,→,right,→,0.8544911999779288,True,15
2B-JK0210K23,33,training,13,↓,left,←,1.22164000000339,False,15
2B-JK0210K23,34,experiment,15,→,left,←,1.1054627999837976,False,15
2B-JK0210K23,35,experiment,13,←,left,←,1.2625026000023354,True,15
2B-JK0210K23,36,experiment,12,↑,up,↑,0.7997656999796163,True,15
2B-JK0210K23,37,experiment,14,↑,up,↑,0.7784251999983098,True,15
2B-JK0210K23,38,training,12,↑,up,↑,0.9166046000027563,True,15
2B-JK0210K23,39,training,13,←,left,←,0.8470368999987841,True,15
2B-JK0210K23,40,experiment,15,→,right,→,0.8772533999872394,True,15
2B-JK0210K23,41,experiment,13,↓,down,↓,0.822996000002604,True,15
2B-JK0210K23,42,experiment,12,←,right,→,0.8743674000143073,False,15
2B-JK0210K23,43,experiment,14,↑,up,↑,0.780400899995584,True,15
2B-JK0210K23,44,training,13,←,right,→,1.4227728999976534,False,15
2B-JK0210K23,45,training,12,↑,right,→,1.2559818000008818,False,15
2B-JK0210K23,46,experiment,12,↑,left,←,1.080399700003909,False,15
2B-JK0210K23,47,experiment,13,↓,up,↑,1.1570849000127055,False,15
2B-JK0210K23,48,experiment,15,↑,down,↓,1.2095362000109162,False,15
2B-JK0210K23,49,experiment,14,→,right,→,0.7652402000094298,True,15
2B-JK0210K23,50,training,15,←,left,←,1.023077599995304,True,16
2B-JK0210K23,51,training,13,↑,right,→,1.1106322999985423,False,16
2B-JK0210K23,52,experiment,13,↓,down,↓,1.0508991999959107,True,16
2B-JK0210K23,53,experiment,12,←,left,←,0.7889571999839973,True,16
2B-JK0210K23,54,experiment,14,←,right,→,0.944142299995292,False,16
2B-JK0210K23,55,experiment,15,→,down,↓,1.6268369999888819,False,16
2B-JK0210K23,56,training,15,↑,down,↓,1.5443314000149257,False,17
2B-JK0210K23,57,training,13,↑,no_key,no_letter,-1.0,False,17
2B-JK0210K23,58,experiment,14,←,left,←,0.5997154999931809,True,17
2B-JK0210K23,59,experiment,13,↓,left,←,1.0616090999974404,False,17
2B-JK0210K23,60,experiment,12,↑,up,↑,0.6256646999972872,True,17
2B-JK0210K23,61,experiment,15,↓,down,↓,0.8061040999891702,True,17
2B-JK0210K23,62,training,14,↑,up,↑,1.0473699000140186,True,17
2B-JK0210K23,63,training,15,→,right,→,1.1130527000059374,True,17
2B-JK0210K23,64,experiment,12,↓,left,←,1.0047895000025164,False,17
2B-JK0210K23,65,experiment,15,↓,down,↓,1.0888433000072837,True,17
2B-JK0210K23,66,experiment,14,↓,up,↑,0.8926791000121739,False,17
2B-JK0210K23,67,experiment,13,↑,up,↑,1.1431462000182364,True,17
2B-JK0210K23,68,training,14,↓,down,↓,0.841797700006282,True,18
2B-JK0210K23,69,training,15,↓,down,↓,0.7654293999949005,True,18
2B-JK0210K23,70,experiment,14,←,down,↓,1.1741704999876674,False,18
2B-JK0210K23,71,experiment,15,↑,up,↑,0.6117645000049379,True,18
2B-JK0210K23,72,experiment,13,↑,up,↑,0.9018266000202857,True,18
2B-JK0210K23,73,experiment,12,←,up,↑,0.9847639999934472,False,18
2B-JK0210K23,74,training,12,↓,up,↑,0.8606649999856018,False,18
2B-JK0210K23,75,training,15,↑,up,↑,0.7607138000021223,True,18
2B-JK0210K23,76,experiment,15,↓,left,←,1.5393688000040129,False,18
2B-JK0210K23,77,experiment,13,→,up,↑,1.533079999993788,False,18
2B-JK0210K23,78,experiment,12,→,left,←,0.9106083999795374,False,18
2B-JK0210K23,79,experiment,14,↓,right,→,0.9006562000140548,False,18
2B-JK0210K23,80,training,13,→,up,↑,1.15029059999506,False,18
2B-JK0210K23,81,training,12,→,right,→,1.063311900012195,True,18
2B-JK0210K23,82,experiment,12,→,right,→,1.130715000006603,True,18
2B-JK0210K23,83,experiment,13,↑,up,↑,0.8382764999987558,True,18
2B-JK0210K23,84,experiment,14,↓,down,↓,0.8534657999989577,True,18
2B-JK0210K23,85,experiment,15,→,down,↓,0.9851936000050046,False,18
2B-JK0210K23,86,training,14,↓,no_key,no_letter,-1.0,False,18
2B-JK0210K23,87,training,12,↑,right,→,1.0318114000256173,False,18
2B-JK0210K23,88,experiment,15,→,right,→,0.8450688000011723,True,18
2B-JK0210K23,89,experiment,14,↓,left,←,1.0121177000110038,False,18
2B-JK0210K23,90,experiment,12,→,right,→,0.9253424000053201,True,18
2B-JK0210K23,91,experiment,13,→,right,→,0.8801875000062864,True,18
