PART_ID,Trial_no,Trial_type,CSI,Stim_letter,Key_pressed,letter_choose,Rt,Corr,Stimulus Time
2B-MP0306K23,1,training,12,↑,no_key,no_letter,-1.0,False,30
2B-MP0306K23,2,training,12,↑,down,↓,1.9620638999622315,False,30
2B-MP0306K23,3,training,12,↑,up,↑,0.7205853000050411,True,30
2B-MP0306K23,4,training,12,↓,down,↓,0.8542747999308631,True,30
2B-MP0306K23,5,training,12,↑,up,↑,0.9402224000077695,True,30
2B-MP0306K23,6,training,12,↓,down,↓,0.7749419000465423,True,30
2B-MP0306K23,7,training,12,→,left,←,0.5002674999414012,False,30
2B-MP0306K23,8,training,12,←,left,←,0.4678836000384763,True,30
2B-MP0306K23,9,training,12,→,right,→,0.583958400064148,True,30
2B-MP0306K23,10,training,12,→,right,→,0.7747561999130994,True,30
2B-MP0306K23,11,training,12,↑,up,↑,0.7357598999515176,True,30
2B-MP0306K23,12,training,12,→,right,→,0.7275538000976667,True,30
2B-MP0306K23,13,training,12,↑,right,→,1.2611474000150338,False,30
2B-MP0306K23,14,training,12,↓,down,↓,0.6338185000931844,True,30
2B-MP0306K23,15,training,12,←,left,←,0.7651774000842124,True,30
2B-MP0306K23,16,training,12,←,left,←,0.9260968999005854,True,18
2B-MP0306K23,17,training,12,←,left,←,0.6062057000817731,True,18
2B-MP0306K23,18,training,12,→,right,→,0.5405347000341862,True,18
2B-MP0306K23,19,training,12,↓,down,↓,0.588812300004065,True,18
2B-MP0306K23,20,training,12,↓,up,↑,1.094871399924159,False,18
2B-MP0306K23,21,training,12,←,left,←,0.5577567000873387,True,18
2B-MP0306K23,22,training,12,→,left,←,0.7356749000027776,False,18
2B-MP0306K23,23,training,12,←,left,←,0.4734619000228122,True,18
2B-MP0306K23,24,training,12,→,right,→,0.9214014000026509,True,18
2B-MP0306K23,25,training,12,←,left,←,0.4951424999162555,True,18
2B-MP0306K23,26,training,14,→,left,←,0.8210761999944225,False,15
2B-MP0306K23,27,training,13,→,right,→,0.6170574000570923,True,15
2B-MP0306K23,28,experiment,13,↑,left,←,1.0581808999413624,False,15
2B-MP0306K23,29,experiment,15,←,left,←,0.5040980000048876,True,15
2B-MP0306K23,30,experiment,12,←,left,←,0.49820899998303503,True,15
2B-MP0306K23,31,experiment,14,↑,up,↑,0.49344249989371747,True,15
2B-MP0306K23,32,training,13,↑,up,↑,1.140814600046724,True,15
2B-MP0306K23,33,training,12,↑,up,↑,0.4940263999160379,True,15
2B-MP0306K23,34,experiment,14,←,down,↓,0.8260759999975562,False,15
2B-MP0306K23,35,experiment,12,→,left,←,0.9197063000174239,False,15
2B-MP0306K23,36,experiment,15,→,right,→,0.6892744000069797,True,15
2B-MP0306K23,37,experiment,13,←,left,←,0.7824633999262005,True,15
2B-MP0306K23,38,training,13,→,right,→,0.6175314000574872,True,16
2B-MP0306K23,39,training,12,↑,left,←,0.8015798000851646,False,16
2B-MP0306K23,40,experiment,15,→,right,→,0.6621729999314994,True,16
2B-MP0306K23,41,experiment,12,←,left,←,0.4916486000875011,True,16
2B-MP0306K23,42,experiment,13,↓,down,↓,0.7761151000158861,True,16
2B-MP0306K23,43,experiment,14,←,left,←,0.5336386000271887,True,16
2B-MP0306K23,44,training,13,←,left,←,0.45444270002190024,True,15
2B-MP0306K23,45,training,13,↓,right,→,0.8711490000132471,False,15
2B-MP0306K23,46,experiment,15,↑,up,↑,0.5376243999926373,True,15
2B-MP0306K23,47,experiment,14,←,right,→,0.6740889999782667,False,15
2B-MP0306K23,48,experiment,13,↑,up,↑,0.48612710007000715,True,15
2B-MP0306K23,49,experiment,12,↑,left,←,0.7397428000112996,False,15
2B-MP0306K23,50,training,14,←,right,→,0.6069603000069037,False,16
2B-MP0306K23,51,training,13,→,left,←,0.6353824000107124,False,16
2B-MP0306K23,52,experiment,14,↓,down,↓,0.5223822999978438,True,16
2B-MP0306K23,53,experiment,13,↑,up,↑,0.5320250999648124,True,16
2B-MP0306K23,54,experiment,15,↓,down,↓,0.6410031999694183,True,16
2B-MP0306K23,55,experiment,12,↑,up,↑,0.598093600012362,True,16
2B-MP0306K23,56,training,12,↓,down,↓,1.0571416999446228,True,15
2B-MP0306K23,57,training,12,→,down,↓,0.8001788998953998,False,15
2B-MP0306K23,58,experiment,14,↓,down,↓,0.6088762000435963,True,15
2B-MP0306K23,59,experiment,12,←,down,↓,0.8815035000443459,False,15
2B-MP0306K23,60,experiment,13,↑,right,→,0.9043733000289649,False,15
2B-MP0306K23,61,experiment,15,←,left,←,0.6710038000019267,True,15
2B-MP0306K23,62,training,13,↑,down,↓,0.7371191000565886,False,16
2B-MP0306K23,63,training,12,→,right,→,0.5489793999586254,True,16
2B-MP0306K23,64,experiment,12,↓,left,←,0.7653454999672249,False,16
2B-MP0306K23,65,experiment,14,↑,down,↓,0.9067963999696076,False,16
2B-MP0306K23,66,experiment,15,↑,up,↑,0.5844030999578536,True,16
2B-MP0306K23,67,experiment,13,→,right,→,0.5137556999688968,True,16
2B-MP0306K23,68,training,14,↓,left,←,0.8394920999417081,False,17
2B-MP0306K23,69,training,12,↑,up,↑,0.6534675000002608,True,17
2B-MP0306K23,70,experiment,15,←,right,→,0.7215017999988049,False,17
2B-MP0306K23,71,experiment,14,←,down,↓,0.6130961999297142,False,17
2B-MP0306K23,72,experiment,12,→,down,↓,0.7951809000223875,False,17
2B-MP0306K23,73,experiment,13,→,left,←,0.6638400999363512,False,17
2B-MP0306K23,74,training,13,←,left,←,0.7034802999114618,True,18
2B-MP0306K23,75,training,15,↑,up,↑,0.471369200036861,True,18
2B-MP0306K23,76,experiment,13,↓,down,↓,0.5676082000136375,True,18
2B-MP0306K23,77,experiment,14,↓,down,↓,0.5680620999773964,True,18
2B-MP0306K23,78,experiment,12,→,right,→,0.8245316999964416,True,18
2B-MP0306K23,79,experiment,15,→,right,→,0.8236661000410095,True,18
2B-MP0306K23,80,training,15,→,up,↑,0.860145700047724,False,17
2B-MP0306K23,81,training,15,←,left,←,0.5360973000060767,True,17
2B-MP0306K23,82,experiment,15,←,left,←,0.6262622000649571,True,17
2B-MP0306K23,83,experiment,13,←,left,←,0.9641198000172153,True,17
2B-MP0306K23,84,experiment,14,↓,up,↑,0.5311262999894097,False,17
2B-MP0306K23,85,experiment,12,→,right,→,0.5943614999996498,True,17
2B-MP0306K23,86,training,12,↑,left,←,0.6447780000744388,False,17
2B-MP0306K23,87,training,13,←,right,→,0.7229689999949187,False,17
2B-MP0306K23,88,experiment,15,←,left,←,0.7551804999820888,True,17
2B-MP0306K23,89,experiment,13,↑,down,↓,0.8333308999426663,False,17
2B-MP0306K23,90,experiment,14,←,left,←,0.549439600086771,True,17
2B-MP0306K23,91,experiment,12,←,left,←,0.7290854000020772,True,17
