PART_ID,Trial_no,Trial_type,CSI,Stim_letter,Key_pressed,letter_choose,Rt,Corr,Stimulus Time
2B-OP3001K21,1,training,12,←,no_key,no_letter,-1.0,False,30
2B-OP3001K21,2,training,12,←,left,←,1.0149295999999595,True,30
2B-OP3001K21,3,training,12,←,left,←,0.8697831999998016,True,30
2B-OP3001K21,4,training,12,↓,up,↑,1.9894932999995945,False,30
2B-OP3001K21,5,training,12,←,left,←,1.4933897999999317,True,30
2B-OP3001K21,6,training,12,↑,up,↑,1.0388577000012447,True,30
2B-OP3001K21,7,training,12,←,left,←,0.9742229000003135,True,30
2B-OP3001K21,8,training,12,↓,down,↓,0.8245876000000862,True,30
2B-OP3001K21,9,training,12,↓,down,↓,0.5671482000016113,True,30
2B-OP3001K21,10,training,12,↑,down,↓,0.7392496999982541,False,30
2B-OP3001K21,11,training,12,↓,up,↑,1.083500799999456,False,30
2B-OP3001K21,12,training,12,←,down,↓,1.2013818000013998,False,30
2B-OP3001K21,13,training,12,←,left,←,0.7363757999992231,True,30
2B-OP3001K21,14,training,12,↓,right,→,0.46759100000053877,False,30
2B-OP3001K21,15,training,12,←,left,←,0.7724577999997564,True,30
2B-OP3001K21,16,training,12,↓,left,←,1.209338700000444,False,18
2B-OP3001K21,17,training,12,←,left,←,0.8283535000009579,True,18
2B-OP3001K21,18,training,12,←,right,→,1.1601535999998305,False,18
2B-OP3001K21,19,training,12,→,right,→,0.6376304000004893,True,18
2B-OP3001K21,20,training,12,↑,up,↑,0.8983005999998568,True,18
2B-OP3001K21,21,training,12,↓,down,↓,0.6963696000002528,True,18
2B-OP3001K21,22,training,12,→,right,→,0.8242527000002156,True,18
2B-OP3001K21,23,training,12,←,left,←,0.824261400000978,True,18
2B-OP3001K21,24,training,12,↑,no_key,no_letter,-1.0,False,18
2B-OP3001K21,25,training,12,↓,left,←,0.7254341999996541,False,18
2B-OP3001K21,26,training,12,→,right,→,0.8105040999998891,True,15
2B-OP3001K21,27,training,12,↓,right,→,0.9126708000003418,False,15
2B-OP3001K21,28,experiment,12,↑,left,←,0.8175385999984428,False,15
2B-OP3001K21,29,experiment,14,↑,up,↑,0.6565097000002424,True,15
2B-OP3001K21,30,experiment,13,↓,down,↓,0.5271362999992562,True,15
2B-OP3001K21,31,experiment,15,↑,up,↑,0.6001612000000023,True,15
2B-OP3001K21,32,training,14,↓,down,↓,0.6899358999999095,True,15
2B-OP3001K21,33,training,12,→,right,→,0.5751318000002357,True,15
2B-OP3001K21,34,experiment,13,↑,left,←,0.800547099999676,False,15
2B-OP3001K21,35,experiment,14,↓,left,←,0.5898087000005034,False,15
2B-OP3001K21,36,experiment,15,↑,up,↑,0.8874872000014875,True,15
2B-OP3001K21,37,experiment,12,↓,down,↓,0.9259872999991785,True,15
2B-OP3001K21,38,training,13,←,right,→,0.5784653000009712,False,16
2B-OP3001K21,39,training,15,→,left,←,0.5663203000003705,False,16
2B-OP3001K21,40,experiment,12,↑,left,←,0.7623273999997764,False,16
2B-OP3001K21,41,experiment,14,↓,down,↓,0.44203529999867897,True,16
2B-OP3001K21,42,experiment,15,←,up,↑,0.633045000000493,False,16
2B-OP3001K21,43,experiment,13,↑,left,←,0.8546511000004102,False,16
2B-OP3001K21,44,training,12,↓,down,↓,1.5106532000008883,True,17
2B-OP3001K21,45,training,12,←,right,→,0.35034559999985504,False,17
2B-OP3001K21,46,experiment,13,←,right,→,0.41692109999894456,False,17
2B-OP3001K21,47,experiment,12,↑,left,←,0.367330299999594,False,17
2B-OP3001K21,48,experiment,15,→,up,↑,0.41714219999994384,False,17
2B-OP3001K21,49,experiment,14,→,left,←,0.9364690999991581,False,17
2B-OP3001K21,50,training,13,→,left,←,0.71536019999985,False,18
2B-OP3001K21,51,training,15,→,left,←,0.6549721999999747,False,18
2B-OP3001K21,52,experiment,12,→,right,→,0.6673143999996682,True,18
2B-OP3001K21,53,experiment,15,→,right,→,0.6691567999987456,True,18
2B-OP3001K21,54,experiment,14,↓,down,↓,1.0837831999997434,True,18
2B-OP3001K21,55,experiment,13,←,left,←,0.5343177999984619,True,18
2B-OP3001K21,56,training,14,↓,left,←,0.6232111000008445,False,17
2B-OP3001K21,57,training,15,→,right,→,0.31719109999903594,True,17
2B-OP3001K21,58,experiment,13,→,up,↑,0.3507009000004473,False,17
2B-OP3001K21,59,experiment,12,←,left,←,0.49295639999945706,True,17
2B-OP3001K21,60,experiment,15,↓,left,←,0.3836905999996816,False,17
2B-OP3001K21,61,experiment,14,←,down,↓,0.3503055000001041,False,17
2B-OP3001K21,62,training,15,←,no_key,no_letter,-1.0,False,18
2B-OP3001K21,63,training,14,←,left,←,0.5682321999993292,True,18
2B-OP3001K21,64,experiment,14,←,left,←,0.7758388000002014,True,18
2B-OP3001K21,65,experiment,12,↑,up,↑,0.6995723999989423,True,18
2B-OP3001K21,66,experiment,13,↑,down,↓,0.7567575000011857,False,18
2B-OP3001K21,67,experiment,15,→,right,→,0.581642400000419,True,18
2B-OP3001K21,68,training,15,↓,down,↓,0.6003944999993109,True,18
2B-OP3001K21,69,training,15,→,right,→,0.5906266999991203,True,18
2B-OP3001K21,70,experiment,15,→,left,←,0.6615932999993674,False,18
2B-OP3001K21,71,experiment,12,→,down,↓,1.3429004999998142,False,18
2B-OP3001K21,72,experiment,13,↓,down,↓,0.8084053000002314,True,18
2B-OP3001K21,73,experiment,14,↑,left,←,0.9914885999987746,False,18
2B-OP3001K21,74,training,14,←,right,→,0.7779641000015545,False,18
2B-OP3001K21,75,training,13,←,left,←,0.7609087999990152,True,18
2B-OP3001K21,76,experiment,14,←,left,←,0.7095680000002176,True,18
2B-OP3001K21,77,experiment,15,↓,down,↓,0.5751710000004095,True,18
2B-OP3001K21,78,experiment,13,↓,right,→,0.6260564999993221,False,18
2B-OP3001K21,79,experiment,12,←,down,↓,0.4989619000007224,False,18
2B-OP3001K21,80,training,12,→,down,↓,0.7584585000004154,False,18
2B-OP3001K21,81,training,14,←,left,←,0.6731359000004886,True,18
2B-OP3001K21,82,experiment,12,←,left,←,0.5411738000002515,True,18
2B-OP3001K21,83,experiment,13,↓,no_key,no_letter,-1.0,False,18
2B-OP3001K21,84,experiment,14,↓,left,←,0.7764370999993844,False,18
2B-OP3001K21,85,experiment,15,→,left,←,0.4734139000011055,False,18
2B-OP3001K21,86,training,15,→,no_key,no_letter,-1.0,False,18
2B-OP3001K21,87,training,13,↓,no_key,no_letter,-1.0,False,18
2B-OP3001K21,88,experiment,12,↓,down,↓,0.6089351999999053,True,18
2B-OP3001K21,89,experiment,14,↓,no_key,no_letter,-1.0,False,18
2B-OP3001K21,90,experiment,15,↓,left,←,0.678843899999265,False,18
2B-OP3001K21,91,experiment,13,↓,down,↓,0.5628686000000016,True,18
