PART_ID,Trial_no,Trial_type,CSI,Stim_letter,Key_pressed,letter_choose,Rt,Corr,Stimulus Time
2B-RD3008M30,1,training,12,←,no_key,no_letter,-1.0,False,30
2B-RD3008M30,2,training,12,→,right,→,1.3012238000228535,True,30
2B-RD3008M30,3,training,12,←,left,←,0.9869984000106342,True,30
2B-RD3008M30,4,training,12,→,right,→,0.6174093000008725,True,30
2B-RD3008M30,5,training,12,↑,right,→,0.6981123000150546,False,30
2B-RD3008M30,6,training,12,↑,up,↑,0.7208953999797814,True,30
2B-RD3008M30,7,training,12,↑,left,←,0.38445789998513646,False,30
2B-RD3008M30,8,training,12,←,right,→,0.45130640000570565,False,30
2B-RD3008M30,9,training,12,↓,down,↓,0.8120084000111092,True,30
2B-RD3008M30,10,training,12,→,right,→,0.6171443999919575,True,30
2B-RD3008M30,11,training,12,←,left,←,0.6171830000239424,True,30
2B-RD3008M30,12,training,12,←,right,→,0.46789060000446625,False,30
2B-RD3008M30,13,training,12,↓,left,←,0.3345147000218276,False,30
2B-RD3008M30,14,training,12,↑,down,↓,0.38465649998397566,False,30
2B-RD3008M30,15,training,12,→,left,←,0.6168275999953039,False,30
2B-RD3008M30,16,training,12,→,right,→,0.433497099991655,True,18
2B-RD3008M30,17,training,12,→,left,←,0.20110939998994581,False,18
2B-RD3008M30,18,training,12,↑,right,→,0.2839218000008259,False,18
2B-RD3008M30,19,training,12,←,left,←,0.35070129999076016,True,18
2B-RD3008M30,20,training,12,↑,left,←,0.3172824000066612,False,18
2B-RD3008M30,21,training,12,↓,right,→,0.31722070000250824,False,18
2B-RD3008M30,22,training,12,→,left,←,0.4797829999879468,False,18
2B-RD3008M30,23,training,12,↑,left,←,0.47692669997923076,False,18
2B-RD3008M30,24,training,12,↓,down,↓,0.729439300019294,True,18
2B-RD3008M30,25,training,12,↑,down,↓,0.23448990000179037,False,18
2B-RD3008M30,26,training,15,→,no_key,no_letter,-1.0,False,15
2B-RD3008M30,27,training,12,↑,left,←,0.383884599985322,False,15
2B-RD3008M30,28,experiment,13,↓,right,→,0.5052049000223633,False,15
2B-RD3008M30,29,experiment,15,↓,down,↓,0.4983255000261124,True,15
2B-RD3008M30,30,experiment,14,→,down,↓,0.3838697999890428,False,15
2B-RD3008M30,31,experiment,12,↑,right,→,0.18453860000590794,False,15
2B-RD3008M30,32,training,15,←,right,→,0.503162799985148,False,16
2B-RD3008M30,33,training,14,←,right,→,0.3837723999749869,False,16
2B-RD3008M30,34,experiment,13,↑,down,↓,0.3005694000166841,False,16
2B-RD3008M30,35,experiment,15,←,left,←,0.2671629000105895,True,16
2B-RD3008M30,36,experiment,12,←,right,→,0.4888142999843694,False,16
2B-RD3008M30,37,experiment,14,←,left,←,0.20099139999365434,True,16
2B-RD3008M30,38,training,12,↑,no_key,no_letter,-1.0,False,17
2B-RD3008M30,39,training,12,←,no_key,no_letter,-1.0,False,17
2B-RD3008M30,40,experiment,14,→,left,←,1.5395667999982834,False,17
2B-RD3008M30,41,experiment,12,↓,left,←,0.2344703999988269,False,17
2B-RD3008M30,42,experiment,15,↓,up,↑,0.49205699999583885,False,17
2B-RD3008M30,43,experiment,13,←,up,↑,0.20116259998758323,False,17
2B-RD3008M30,44,training,13,→,down,↓,0.15109160001156852,False,18
2B-RD3008M30,45,training,15,↑,up,↑,0.23458649998065084,True,18
2B-RD3008M30,46,experiment,14,↓,down,↓,0.20115690000238828,True,18
2B-RD3008M30,47,experiment,15,↓,down,↓,0.38386370000080206,True,18
2B-RD3008M30,48,experiment,13,↓,right,→,0.15108410001266748,False,18
2B-RD3008M30,49,experiment,12,↓,down,↓,0.08441339997807518,True,18
2B-RD3008M30,50,training,12,↑,down,↓,0.06760429998394102,False,18
2B-RD3008M30,51,training,15,→,up,↑,0.15105519999633543,False,18
2B-RD3008M30,52,experiment,15,→,down,↓,0.15106919998652302,False,18
2B-RD3008M30,53,experiment,12,→,left,←,0.31743359999381937,False,18
2B-RD3008M30,54,experiment,14,→,right,→,0.16787679999833927,True,18
2B-RD3008M30,55,experiment,13,←,right,→,0.26770230001420714,False,18
2B-RD3008M30,56,training,15,←,left,←,0.30065839999588206,True,18
2B-RD3008M30,57,training,14,↑,left,←,0.25146610001684166,False,18
2B-RD3008M30,58,experiment,12,↓,up,↑,0.001053099986165762,False,18
2B-RD3008M30,59,experiment,13,←,up,↑,0.5166022999910638,False,18
2B-RD3008M30,60,experiment,15,→,down,↓,0.11775949998991564,False,18
2B-RD3008M30,61,experiment,14,←,left,←,0.3172288999776356,True,18
2B-RD3008M30,62,training,12,↑,left,←,0.41716499999165535,False,18
2B-RD3008M30,63,training,13,→,left,←,0.333743900002446,False,18
2B-RD3008M30,64,experiment,13,←,left,←,0.23442660001455806,True,18
2B-RD3008M30,65,experiment,14,↑,left,←,0.051285199995618314,False,18
2B-RD3008M30,66,experiment,12,↑,up,↑,0.36721569998189807,True,18
2B-RD3008M30,67,experiment,15,→,left,←,0.03418230000534095,False,18
2B-RD3008M30,68,training,15,↑,right,→,0.01785910001490265,False,18
2B-RD3008M30,69,training,12,←,up,↑,0.11786480000591837,False,18
2B-RD3008M30,70,experiment,14,↓,up,↑,0.16775930000585504,False,18
2B-RD3008M30,71,experiment,12,→,down,↓,0.06753809997462668,False,18
2B-RD3008M30,72,experiment,15,←,down,↓,0.2679520999954548,False,18
2B-RD3008M30,73,experiment,13,↓,left,←,0.644557799998438,False,18
2B-RD3008M30,74,training,13,→,left,←,0.2345119999954477,False,18
2B-RD3008M30,75,training,13,←,right,→,0.3839227000134997,False,18
2B-RD3008M30,76,experiment,15,→,left,←,0.13421720001497306,False,18
2B-RD3008M30,77,experiment,12,←,up,↑,0.15104679999058135,False,18
2B-RD3008M30,78,experiment,14,↓,left,←,0.0511289999994915,False,18
2B-RD3008M30,79,experiment,13,↓,left,←,0.4336178000085056,False,18
2B-RD3008M30,80,training,13,←,left,←,0.33419180000782944,True,18
2B-RD3008M30,81,training,15,↑,up,↑,0.25104090000968426,True,18
2B-RD3008M30,82,experiment,14,↓,down,↓,0.11800170000060461,True,18
2B-RD3008M30,83,experiment,13,→,left,←,0.5438097000005655,False,18
2B-RD3008M30,84,experiment,15,↓,down,↓,0.8146934999967925,True,18
2B-RD3008M30,85,experiment,12,→,up,↑,0.11825100000714883,False,18
2B-RD3008M30,86,training,12,↑,up,↑,0.4165266000200063,True,18
2B-RD3008M30,87,training,12,←,up,↑,0.5392616000026464,False,18
2B-RD3008M30,88,experiment,13,←,right,→,0.16779370000585914,False,18
2B-RD3008M30,89,experiment,12,→,up,↑,0.11776189997908659,False,18
2B-RD3008M30,90,experiment,14,↑,up,↑,0.2515226999821607,True,18
2B-RD3008M30,91,experiment,15,↑,left,←,0.034524899994721636,False,18
