PART_ID,Trial_no,Trial_type,CSI,Stim_letter,Key_pressed,letter_choose,Rt,Corr,Stimulus Time
2B-TD0211M19,1,training,12,→,no_key,no_letter,-1.0,False,30
2B-TD0211M19,2,training,12,←,left,←,0.8128444000612944,True,30
2B-TD0211M19,3,training,12,↓,up,↑,0.8736926999408752,False,30
2B-TD0211M19,4,training,12,←,left,←,0.8788824999937788,True,30
2B-TD0211M19,5,training,12,↓,no_key,no_letter,-1.0,False,30
2B-TD0211M19,6,training,12,→,no_key,no_letter,-1.0,False,30
2B-TD0211M19,7,training,12,↑,no_key,no_letter,-1.0,False,30
2B-TD0211M19,8,training,12,←,no_key,no_letter,-1.0,False,30
2B-TD0211M19,9,training,12,←,left,←,1.386690300074406,True,30
2B-TD0211M19,10,training,12,↓,up,↑,0.9937131999759004,False,30
2B-TD0211M19,11,training,12,←,down,↓,1.2658279000315815,False,30
2B-TD0211M19,12,training,12,↓,down,↓,0.5838572999928147,True,30
2B-TD0211M19,13,training,12,↑,down,↓,0.6171804999466985,False,30
2B-TD0211M19,14,training,12,←,left,←,0.9257747000083327,True,30
2B-TD0211M19,15,training,12,↓,down,↓,1.1871259999461472,True,30
2B-TD0211M19,16,training,12,←,left,←,1.4562167000258341,True,18
2B-TD0211M19,17,training,12,↓,up,↑,1.1315331000369042,False,18
2B-TD0211M19,18,training,12,→,right,→,1.0065546999685466,True,18
2B-TD0211M19,19,training,12,←,left,←,0.6932813000166789,True,18
2B-TD0211M19,20,training,12,↓,left,←,1.1243104999884963,False,18
2B-TD0211M19,21,training,12,↓,down,↓,0.6316139999544248,True,18
2B-TD0211M19,22,training,12,→,right,→,0.7293560000834987,True,18
2B-TD0211M19,23,training,12,↑,no_key,no_letter,-1.0,False,18
2B-TD0211M19,24,training,12,←,left,←,1.3032431000610813,True,18
2B-TD0211M19,25,training,12,→,right,→,0.777959999977611,True,18
2B-TD0211M19,26,training,12,↑,no_key,no_letter,-1.0,False,15
2B-TD0211M19,27,training,14,→,down,↓,1.4761921999743208,False,15
2B-TD0211M19,28,experiment,12,↓,left,←,1.6361723000882193,False,15
2B-TD0211M19,29,experiment,13,↑,right,→,0.9227218999294564,False,15
2B-TD0211M19,30,experiment,14,←,down,↓,1.3818561000516638,False,15
2B-TD0211M19,31,experiment,15,↓,right,→,0.9918772999662906,False,15
2B-TD0211M19,32,training,13,→,up,↑,1.1509553000796586,False,16
2B-TD0211M19,33,training,15,→,right,→,0.8447000000160187,True,16
2B-TD0211M19,34,experiment,15,→,left,←,1.0250090000918135,False,16
2B-TD0211M19,35,experiment,14,←,left,←,0.6447435000445694,True,16
2B-TD0211M19,36,experiment,13,↑,up,↑,1.910158900078386,True,16
2B-TD0211M19,37,experiment,12,→,down,↓,1.184951400035061,False,16
2B-TD0211M19,38,training,12,↓,up,↑,0.9326537000015378,False,17
2B-TD0211M19,39,training,14,↓,up,↑,0.7410880000097677,False,17
2B-TD0211M19,40,experiment,15,←,up,↑,0.7717649000696838,False,17
2B-TD0211M19,41,experiment,12,→,up,↑,0.53289140004199,False,17
2B-TD0211M19,42,experiment,13,↓,up,↑,0.7197388999629766,False,17
2B-TD0211M19,43,experiment,14,↑,left,←,0.283668200019747,False,17
2B-TD0211M19,44,training,14,←,down,↓,0.7204977000365034,False,18
2B-TD0211M19,45,training,15,←,right,→,0.38394970004446805,False,18
2B-TD0211M19,46,experiment,15,→,left,←,0.7342451000586152,False,18
2B-TD0211M19,47,experiment,12,↑,up,↑,0.21790869999676943,True,18
2B-TD0211M19,48,experiment,13,←,left,←,0.9487821999937296,True,18
2B-TD0211M19,49,experiment,14,→,up,↑,0.8262783999089152,False,18
2B-TD0211M19,50,training,14,↓,no_key,no_letter,-1.0,False,18
2B-TD0211M19,51,training,13,↑,right,→,0.47145730000920594,False,18
2B-TD0211M19,52,experiment,12,←,no_key,no_letter,-1.0,False,18
2B-TD0211M19,53,experiment,13,↑,no_key,no_letter,-1.0,False,18
2B-TD0211M19,54,experiment,15,↓,up,↑,1.4635579000459984,False,18
2B-TD0211M19,55,experiment,14,→,left,←,1.1072164000943303,False,18
2B-TD0211M19,56,training,13,↓,up,↑,0.9235233999788761,False,18
2B-TD0211M19,57,training,15,←,up,↑,1.2580812999513,False,18
2B-TD0211M19,58,experiment,14,↑,up,↑,1.2349522999720648,True,18
2B-TD0211M19,59,experiment,13,←,left,←,0.6286431000335142,True,18
2B-TD0211M19,60,experiment,15,←,left,←,0.8545138000044972,True,18
2B-TD0211M19,61,experiment,12,↑,right,→,0.8328445000806823,False,18
2B-TD0211M19,62,training,15,→,right,→,0.8011128000216559,True,18
2B-TD0211M19,63,training,12,↑,left,←,0.5455441999947652,False,18
2B-TD0211M19,64,experiment,13,→,no_key,no_letter,-1.0,False,18
2B-TD0211M19,65,experiment,15,←,no_key,no_letter,-1.0,False,18
2B-TD0211M19,66,experiment,14,↑,up,↑,0.7094328999519348,True,18
2B-TD0211M19,67,experiment,12,←,left,←,1.0517781999660656,True,18
2B-TD0211M19,68,training,12,←,right,→,0.4166783000109717,False,18
2B-TD0211M19,69,training,13,↑,left,←,0.36731120001059026,False,18
2B-TD0211M19,70,experiment,15,↓,down,↓,0.4172931000357494,True,18
2B-TD0211M19,71,experiment,12,←,up,↑,0.3006403000326827,False,18
2B-TD0211M19,72,experiment,13,→,down,↓,0.15115779999177903,False,18
2B-TD0211M19,73,experiment,14,→,right,→,0.21783940005116165,True,18
2B-TD0211M19,74,training,13,↑,right,→,0.4695800000336021,False,18
2B-TD0211M19,75,training,14,↑,left,←,0.26810180000029504,False,18
2B-TD0211M19,76,experiment,15,←,up,↑,0.1177170000737533,False,18
2B-TD0211M19,77,experiment,13,↓,up,↑,1.0928464999888092,False,18
2B-TD0211M19,78,experiment,12,→,down,↓,1.3137816999806091,False,18
2B-TD0211M19,79,experiment,14,←,down,↓,0.8687077999347821,False,18
2B-TD0211M19,80,training,12,←,no_key,no_letter,-1.0,False,18
2B-TD0211M19,81,training,12,↓,right,→,0.31718969997018576,False,18
2B-TD0211M19,82,experiment,12,→,down,↓,0.8760297000408173,False,18
2B-TD0211M19,83,experiment,13,←,up,↑,1.0188958999933675,False,18
2B-TD0211M19,84,experiment,15,→,left,←,0.664652599953115,False,18
2B-TD0211M19,85,experiment,14,↑,left,←,0.8384395999601111,False,18
2B-TD0211M19,86,training,13,→,up,↑,0.8139953999780118,False,18
2B-TD0211M19,87,training,12,↑,up,↑,0.5526137000415474,True,18
2B-TD0211M19,88,experiment,13,→,right,→,0.8326593999518082,True,18
2B-TD0211M19,89,experiment,12,→,right,→,0.5190868999343365,True,18
2B-TD0211M19,90,experiment,14,→,right,→,0.6600891000125557,True,18
2B-TD0211M19,91,experiment,15,↓,down,↓,0.745891600032337,True,18
