PART_ID,Trial_no,Trial_type,CSI,Stim_letter,Key_pressed,letter_choose,Rt,Corr,Stimulus Time
2B-UL3004K24,1,training,12,↓,down,↓,2.0895243999548256,True,30
2B-UL3004K24,2,training,12,→,right,→,1.160399700049311,True,30
2B-UL3004K24,3,training,12,↑,no_key,no_letter,-1.0,False,30
2B-UL3004K24,4,training,12,→,right,→,0.9324682999867946,True,30
2B-UL3004K24,5,training,12,↑,up,↑,0.8941196999512613,True,30
2B-UL3004K24,6,training,12,↑,up,↑,0.8695549999829382,True,30
2B-UL3004K24,7,training,12,↑,no_key,no_letter,-1.0,False,30
2B-UL3004K24,8,training,12,←,up,↑,1.2469457000261173,False,30
2B-UL3004K24,9,training,12,↑,up,↑,0.798189299996011,True,30
2B-UL3004K24,10,training,12,↓,right,→,1.5262729000533,False,30
2B-UL3004K24,11,training,12,↑,up,↑,0.7520106000592932,True,30
2B-UL3004K24,12,training,12,↑,up,↑,0.9943292000098154,True,30
2B-UL3004K24,13,training,12,↓,down,↓,1.0973021000390872,True,30
2B-UL3004K24,14,training,12,↓,down,↓,0.7810950999846682,True,30
2B-UL3004K24,15,training,12,→,right,→,0.8193060999037698,True,30
2B-UL3004K24,16,training,12,→,right,→,1.8510772000299767,True,18
2B-UL3004K24,17,training,12,→,right,→,0.8799693000037223,True,18
2B-UL3004K24,18,training,12,→,right,→,0.9973240999970585,True,18
2B-UL3004K24,19,training,12,←,left,←,0.8810963000869378,True,18
2B-UL3004K24,20,training,12,→,right,→,0.8669675999553874,True,18
2B-UL3004K24,21,training,12,↓,down,↓,0.7865312000503764,True,18
2B-UL3004K24,22,training,12,↑,up,↑,1.1210726000135764,True,18
2B-UL3004K24,23,training,12,→,right,→,0.769155599991791,True,18
2B-UL3004K24,24,training,12,↓,down,↓,0.7175204999512061,True,18
2B-UL3004K24,25,training,12,→,right,→,0.8862836000043899,True,18
2B-UL3004K24,26,training,14,↑,down,↓,1.0196883999742568,False,15
2B-UL3004K24,27,training,15,↑,up,↑,0.858981900033541,True,15
2B-UL3004K24,28,experiment,14,↑,up,↑,0.9578216999070719,True,15
2B-UL3004K24,29,experiment,12,←,right,→,1.2270336999790743,False,15
2B-UL3004K24,30,experiment,15,→,right,→,0.8296808999730274,True,15
2B-UL3004K24,31,experiment,13,↓,down,↓,1.0170870999572799,True,15
2B-UL3004K24,32,training,14,↓,down,↓,1.0771099999547005,True,15
2B-UL3004K24,33,training,12,→,right,→,1.532565400004387,True,15
2B-UL3004K24,34,experiment,15,↓,left,←,1.316869799979031,False,15
2B-UL3004K24,35,experiment,12,←,left,←,0.8253749000141397,True,15
2B-UL3004K24,36,experiment,14,↑,up,↑,0.8817786999279633,True,15
2B-UL3004K24,37,experiment,13,↓,down,↓,0.8982172000687569,True,15
2B-UL3004K24,38,training,14,↑,down,↓,0.6979036000557244,False,15
2B-UL3004K24,39,training,14,←,left,←,0.7421522999648005,True,15
2B-UL3004K24,40,experiment,15,→,right,→,0.7463355999207124,True,15
2B-UL3004K24,41,experiment,14,↓,down,↓,1.0704648999962956,True,15
2B-UL3004K24,42,experiment,13,→,right,→,0.7461554000619799,True,15
2B-UL3004K24,43,experiment,12,←,left,←,0.8733110000612214,True,15
2B-UL3004K24,44,training,12,→,right,→,1.306543399929069,True,14
2B-UL3004K24,45,training,14,→,right,→,0.9040801000082865,True,14
2B-UL3004K24,46,experiment,12,↑,up,↑,1.055588399991393,True,14
2B-UL3004K24,47,experiment,14,←,left,←,0.5935663999989629,True,14
2B-UL3004K24,48,experiment,15,↓,down,↓,0.850376799935475,True,14
2B-UL3004K24,49,experiment,13,→,right,→,0.6830116999335587,True,14
2B-UL3004K24,50,training,14,←,right,→,0.8668742999434471,False,13
2B-UL3004K24,51,training,15,←,left,←,0.5944189999718219,True,13
2B-UL3004K24,52,experiment,15,↓,down,↓,0.6058772000251338,True,13
2B-UL3004K24,53,experiment,14,←,left,←,0.4790465000551194,True,13
2B-UL3004K24,54,experiment,13,←,left,←,0.35040720005054027,True,13
2B-UL3004K24,55,experiment,12,←,right,→,0.5378802999621257,False,13
2B-UL3004K24,56,training,15,↑,down,↓,1.3619653000496328,False,13
2B-UL3004K24,57,training,15,↓,down,↓,0.6196415999438614,True,13
2B-UL3004K24,58,experiment,15,↑,up,↑,0.6728179999627173,True,13
2B-UL3004K24,59,experiment,12,←,left,←,0.6557777000125498,True,13
2B-UL3004K24,60,experiment,13,↑,up,↑,0.555368599947542,True,13
2B-UL3004K24,61,experiment,14,↓,down,↓,0.7577708000317216,True,13
2B-UL3004K24,62,training,14,↓,down,↓,1.0979461999377236,True,12
2B-UL3004K24,63,training,13,→,right,→,1.128619100083597,True,12
2B-UL3004K24,64,experiment,12,↓,down,↓,0.7248178999871016,True,12
2B-UL3004K24,65,experiment,13,↑,up,↑,0.7948019999312237,True,12
2B-UL3004K24,66,experiment,14,↓,down,↓,0.9701587000163272,True,12
2B-UL3004K24,67,experiment,15,↑,up,↑,0.7705590999685228,True,12
2B-UL3004K24,68,training,15,←,down,↓,1.0883039999753237,False,12
2B-UL3004K24,69,training,15,←,up,↑,1.7732026999583468,False,12
2B-UL3004K24,70,experiment,15,↑,right,→,0.8025121000828221,False,12
2B-UL3004K24,71,experiment,14,→,right,→,0.7260138000128791,True,12
2B-UL3004K24,72,experiment,12,←,left,←,0.5844775000587106,True,12
2B-UL3004K24,73,experiment,13,↑,up,↑,0.8250831000041217,True,12
2B-UL3004K24,74,training,15,→,right,→,0.939732400001958,True,12
2B-UL3004K24,75,training,12,↑,up,↑,0.6982545000500977,True,12
2B-UL3004K24,76,experiment,14,↑,up,↑,0.597630999982357,True,12
2B-UL3004K24,77,experiment,13,→,up,↑,0.8324449999490753,False,12
2B-UL3004K24,78,experiment,15,↑,up,↑,1.4640884000109509,True,12
2B-UL3004K24,79,experiment,12,→,right,→,0.40188230003695935,True,12
2B-UL3004K24,80,training,13,←,left,←,0.7478969000512734,True,12
2B-UL3004K24,81,training,15,↓,down,↓,0.6205615000799298,True,12
2B-UL3004K24,82,experiment,13,→,right,→,0.7296469000866637,True,12
2B-UL3004K24,83,experiment,14,↑,up,↑,0.7167259000707418,True,12
2B-UL3004K24,84,experiment,15,↑,up,↑,0.8764986000023782,True,12
2B-UL3004K24,85,experiment,12,↓,right,→,0.7896094999741763,False,12
2B-UL3004K24,86,training,15,↑,up,↑,1.3829787999857217,True,12
2B-UL3004K24,87,training,15,→,right,→,0.6422290999908,True,12
2B-UL3004K24,88,experiment,14,→,right,→,0.6626327999401838,True,12
2B-UL3004K24,89,experiment,13,←,left,←,0.9054347999626771,True,12
2B-UL3004K24,90,experiment,15,←,up,↑,1.0558344000019133,False,12
2B-UL3004K24,91,experiment,12,↑,up,↑,0.8786162999458611,True,12
