PART_ID,Trial_no,Trial_type,CSI,Stim_letter,Key_pressed,letter_choose,Rt,Corr,Stimulus Time
2B-WD2201K34,1,training,12,↑,no_key,no_letter,-1.0,False,30
2B-WD2201K34,2,training,12,→,right,→,1.2593283000169322,True,30
2B-WD2201K34,3,training,12,↓,left,←,1.4997069999808446,False,30
2B-WD2201K34,4,training,12,↓,no_key,no_letter,-1.0,False,30
2B-WD2201K34,5,training,12,↓,down,↓,1.6146889999508858,True,30
2B-WD2201K34,6,training,12,←,right,→,2.042118899989873,False,30
2B-WD2201K34,7,training,12,←,left,←,1.2106274999678135,True,30
2B-WD2201K34,8,training,12,↓,down,↓,1.5060489000752568,True,30
2B-WD2201K34,9,training,12,→,right,→,1.1788957000244409,True,30
2B-WD2201K34,10,training,12,↓,down,↓,1.15058090002276,True,30
2B-WD2201K34,11,training,12,↑,up,↑,1.2076849000295624,True,30
2B-WD2201K34,12,training,12,←,left,←,0.9349826999241486,True,30
2B-WD2201K34,13,training,12,↓,up,↑,1.085169699974358,False,30
2B-WD2201K34,14,training,12,→,right,→,1.0015205000527203,True,30
2B-WD2201K34,15,training,12,→,right,→,0.9473231000592932,True,30
2B-WD2201K34,16,training,12,↑,no_key,no_letter,-1.0,False,18
2B-WD2201K34,17,training,12,→,right,→,0.7898252999875695,True,18
2B-WD2201K34,18,training,12,↑,up,↑,1.1814222000539303,True,18
2B-WD2201K34,19,training,12,←,left,←,1.0901735000079498,True,18
2B-WD2201K34,20,training,12,←,left,←,1.1022351999999955,True,18
2B-WD2201K34,21,training,12,→,right,→,1.2255984999937937,True,18
2B-WD2201K34,22,training,12,↑,up,↑,1.0421045999974012,True,18
2B-WD2201K34,23,training,12,→,right,→,0.8182054999051616,True,18
2B-WD2201K34,24,training,12,↑,up,↑,1.121801600093022,True,18
2B-WD2201K34,25,training,12,↑,up,↑,1.0533007000340149,True,18
2B-WD2201K34,26,training,12,↑,up,↑,1.1485934000229463,True,15
2B-WD2201K34,27,training,13,↑,up,↑,1.4231207999400795,True,15
2B-WD2201K34,28,experiment,13,↓,down,↓,1.0650967999827117,True,15
2B-WD2201K34,29,experiment,15,↑,up,↑,0.7807393000693992,True,15
2B-WD2201K34,30,experiment,14,↑,down,↓,1.7926905000349507,False,15
2B-WD2201K34,31,experiment,12,→,right,→,0.9073774999706075,True,15
2B-WD2201K34,32,training,14,↓,down,↓,0.9016148000955582,True,15
2B-WD2201K34,33,training,15,↓,down,↓,0.8201035000383854,True,15
2B-WD2201K34,34,experiment,13,↓,down,↓,0.9371166999917477,True,15
2B-WD2201K34,35,experiment,15,←,left,←,0.9995205000741407,True,15
2B-WD2201K34,36,experiment,14,←,left,←,0.8533561000367627,True,15
2B-WD2201K34,37,experiment,12,↓,left,←,1.2382858999771997,False,15
2B-WD2201K34,38,training,15,←,right,→,1.039660400012508,False,15
2B-WD2201K34,39,training,14,↓,down,↓,1.6509739001048729,True,15
2B-WD2201K34,40,experiment,14,↑,right,→,1.7588726000394672,False,15
2B-WD2201K34,41,experiment,13,←,left,←,0.9054521999787539,True,15
2B-WD2201K34,42,experiment,12,→,right,→,0.8576263000722975,True,15
2B-WD2201K34,43,experiment,15,↑,up,↑,1.0078439000062644,True,15
2B-WD2201K34,44,training,15,←,left,←,0.8333774000639096,True,15
2B-WD2201K34,45,training,12,↑,up,↑,0.8018362000584602,True,15
2B-WD2201K34,46,experiment,15,↑,up,↑,0.8594543000217527,True,15
2B-WD2201K34,47,experiment,14,↑,up,↑,1.0835258000297472,True,15
2B-WD2201K34,48,experiment,13,↓,right,→,1.0209579999791458,False,15
2B-WD2201K34,49,experiment,12,→,right,→,0.8714967999840155,True,15
2B-WD2201K34,50,training,13,↓,down,↓,0.9168961000395939,True,15
2B-WD2201K34,51,training,15,↓,down,↓,0.7647203999804333,True,15
2B-WD2201K34,52,experiment,14,→,right,→,0.9603376999730244,True,15
2B-WD2201K34,53,experiment,12,↓,up,↑,1.6756035999860615,False,15
2B-WD2201K34,54,experiment,13,↑,up,↑,1.2919073000084609,True,15
2B-WD2201K34,55,experiment,15,→,down,↓,1.3290124000050128,False,15
2B-WD2201K34,56,training,13,←,right,→,0.9306983998976648,False,16
2B-WD2201K34,57,training,15,↑,up,↑,0.8285790999652818,True,16
2B-WD2201K34,58,experiment,14,→,down,↓,1.4350486000766978,False,16
2B-WD2201K34,59,experiment,12,↑,up,↑,0.8128698000218719,True,16
2B-WD2201K34,60,experiment,13,↑,up,↑,1.0599808999104425,True,16
2B-WD2201K34,61,experiment,15,→,right,→,1.1159448000835255,True,16
2B-WD2201K34,62,training,12,→,right,→,1.1043974000494927,True,16
2B-WD2201K34,63,training,12,→,right,→,0.8817448999034241,True,16
2B-WD2201K34,64,experiment,14,←,left,←,1.0264435999561101,True,16
2B-WD2201K34,65,experiment,12,→,up,↑,1.0580056000035256,False,16
2B-WD2201K34,66,experiment,15,→,right,→,0.6546312998980284,True,16
2B-WD2201K34,67,experiment,13,↓,down,↓,0.8009879000019282,True,16
2B-WD2201K34,68,training,15,→,right,→,0.8763548000715673,True,16
2B-WD2201K34,69,training,12,→,down,↓,1.4132901000557467,False,16
2B-WD2201K34,70,experiment,12,→,left,←,1.5955345999682322,False,16
2B-WD2201K34,71,experiment,14,←,down,↓,1.6583798000356182,False,16
2B-WD2201K34,72,experiment,13,←,up,↑,0.8701980999903753,False,16
2B-WD2201K34,73,experiment,15,→,right,→,0.5890395999886096,True,16
2B-WD2201K34,74,training,15,↑,no_key,no_letter,-1.0,False,17
2B-WD2201K34,75,training,14,↓,right,→,1.0039077999535948,False,17
2B-WD2201K34,76,experiment,15,←,up,↑,1.0344982999376953,False,17
2B-WD2201K34,77,experiment,13,→,right,→,0.9931328999809921,True,17
2B-WD2201K34,78,experiment,14,↓,down,↓,0.7887861999915913,True,17
2B-WD2201K34,79,experiment,12,↑,up,↑,0.6755546000786126,True,17
2B-WD2201K34,80,training,15,←,no_key,no_letter,-1.0,False,17
2B-WD2201K34,81,training,14,↑,no_key,no_letter,-1.0,False,17
2B-WD2201K34,82,experiment,12,→,right,→,0.7221926000202075,True,17
2B-WD2201K34,83,experiment,13,↓,down,↓,0.74884330003988,True,17
2B-WD2201K34,84,experiment,15,→,right,→,0.9239948000758886,True,17
2B-WD2201K34,85,experiment,14,↓,down,↓,0.7543310000328347,True,17
2B-WD2201K34,86,training,15,→,right,→,0.9154594000428915,True,16
2B-WD2201K34,87,training,12,←,left,←,0.9817711999639869,True,16
2B-WD2201K34,88,experiment,15,→,right,→,0.8087746000383049,True,16
2B-WD2201K34,89,experiment,13,↑,up,↑,0.9378454999532551,True,16
2B-WD2201K34,90,experiment,12,←,left,←,0.838878000038676,True,16
2B-WD2201K34,91,experiment,14,→,right,→,0.8023825000273064,True,16
